trials.thisRepN,trials.thisTrialN,trials.thisN,trials.thisIndex,break_text.started,break_text.stopped,postbreak_text.started,postbreak_text.stopped,fixation1.started,fixation1.stopped,dots_stimulus.started,dots_stimulus.stopped,blackout.started,blackout.stopped,red_dot.started,red_dot.stopped,fixation2.started,fixation2.stopped,pursuit_or_saccade_dot.started,pursuit_or_saccade_dot.stopped,response.keys,response.rt,response.started,response.stopped,coh,dir,response,correct,pursuit_saccade_isLeft,congruent,pupil_timestamp,psychopy_timestamp,participant,trials_per_condition,pursuit_or_saccade,practice_version,break_every_n_trials,pupil_on,date,expName,psychopyVersion,frameRate,
0,0,0,0,None,None,None,None,17.915229300000647,18.930132699999376,18.930132699999376,19.230334899999434,18.930132699999376,19.230334899999434,17.915229300000647,20.247084199996607,19.230334899999434,20.231818399995973,20.231818399995973,21.381457399998908,left,0.6199140000026091,21.381457399998908,None,0.24,180.0,180,1,1.0,1,54456.954636,16.87928621000683,,90,1,0,45,1,2021_Feb_10_1523,testDots,2020.2.5,59.698284868642006,
1,0,1,0,None,None,None,None,23.05694239999866,24.067010099999607,24.067010099999607,24.36752169999818,24.067010099999607,24.36752169999818,23.05694239999866,25.385215999995125,24.36752169999818,25.3684288000004,25.3684288000004,26.52072549999866,right,0.5850664000026882,26.52072549999866,None,0.03,180.0,0,0,0.0,0,54462.124531,22.05001117999636,,90,1,0,45,1,2021_Feb_10_1523,testDots,2020.2.5,59.698284868642006,
2,0,2,0,None,None,None,None,28.14237769999454,29.15561319999688,29.15561319999688,29.455869199999142,29.15561319999688,29.455869199999142,28.14237769999454,30.475675999994564,29.455869199999142,30.458213300000352,30.458213300000352,31.60834149999573,left,0.5291817999968771,31.60834149999573,None,0.12,180.0,180,1,1.0,1,54467.210253,27.138388880001727,,90,1,0,45,1,2021_Feb_10_1523,testDots,2020.2.5,59.698284868642006,
3,0,3,0,None,None,None,None,33.180843399997684,34.19448209999973,34.19448209999973,34.49628819999634,34.19448209999973,34.49628819999634,33.180843399997684,35.51422420000017,34.49628819999634,35.495555699999386,35.495555699999386,36.66355990000011,left,0.4419045999966329,36.66355990000011,None,0.06,0.0,180,0,1.0,0,54472.247923,32.175865379995955,,90,1,0,45,1,2021_Feb_10_1523,testDots,2020.2.5,59.698284868642006,
4,0,4,0,None,None,None,None,38.15212909999536,39.16672409999592,39.16672409999592,39.482854800000496,39.16672409999592,39.482854800000496,38.15212909999536,40.50214949999645,39.482854800000496,40.48397339999792,40.48397339999792,41.63575869999477,right,0.3977167000048212,41.63575869999477,None,0.48,0.0,0,1,1.0,0,54477.219063,37.14794628000236,,90,1,0,45,1,2021_Feb_10_1523,testDots,2020.2.5,59.698284868642006,
5,0,5,0,None,None,None,None,43.075778999998874,44.08853009999439,44.08853009999439,44.38892259999557,44.08853009999439,44.38892259999557,43.075778999998874,45.40651789999538,44.38892259999557,45.388455199994496,45.388455199994496,46.55749609999475,right,0.4198467000023811,46.55749609999475,None,0.48,180.0,0,0,0.0,0,54482.142157,42.069535380000886,,90,1,0,45,1,2021_Feb_10_1523,testDots,2020.2.5,59.698284868642006,
6,0,6,0,None,None,None,None,48.030071499997575,49.04294249999657,49.04294249999657,49.34388619999663,49.04294249999657,49.34388619999663,48.030071499997575,50.36187419999624,49.34388619999663,50.344211099996755,50.344211099996755,51.4958759000001,left,0.33743369999865536,51.4958759000001,None,0.12,180.0,180,1,0.0,0,54487.096964,47.02473847999936,,90,1,0,45,1,2021_Feb_10_1523,testDots,2020.2.5,59.698284868642006,
7,0,7,0,None,None,None,None,52.883917200000724,53.89799189999758,53.89799189999758,54.19833029999427,53.89799189999758,54.19833029999427,52.883917200000724,55.21625739999581,54.19833029999427,55.19804309999745,55.19804309999745,56.35015709999425,right,0.25929299999552313,56.35015709999425,None,0.06,0.0,0,1,0.0,1,54491.951126,51.87863707999786,,90,1,0,45,1,2021_Feb_10_1523,testDots,2020.2.5,59.698284868642006,
8,0,8,0,None,None,None,None,57.65537290000066,58.6700320999953,58.6700320999953,58.98463410000113,58.6700320999953,58.98463410000113,57.65537290000066,60.0045095999958,58.98463410000113,59.98641579999821,59.98641579999821,61.13871759999893,left,0.36694469999929424,61.13871759999893,None,0.24,180.0,180,1,1.0,1,54496.722358,56.65006377999525,,90,1,0,45,1,2021_Feb_10_1523,testDots,2020.2.5,59.698284868642006,
9,0,9,0,None,None,None,None,62.54299119999632,63.55791359999421,63.55791359999421,63.857791099995666,63.55791359999421,63.857791099995666,62.54299119999632,64.87458689999767,63.857791099995666,64.85935729999619,64.85935729999619,66.01028239999869,right,0.27105329999903915,66.01028239999869,None,0.03,0.0,0,1,1.0,0,54501.609347,61.53861757999839,,90,1,0,45,1,2021_Feb_10_1523,testDots,2020.2.5,59.698284868642006,
10,0,10,0,None,None,None,None,67.33390249999502,68.34478300000046,68.34478300000046,68.64572129999578,68.34478300000046,68.64572129999578,67.33390249999502,69.6640666999956,68.64572129999578,69.64807709999877,69.64807709999877,70.81368089999887,right,0.3477329000015743,70.81368089999887,None,0.12,180.0,0,0,1.0,1,54506.400628,66.32614218000236,,90,1,0,45,1,2021_Feb_10_1523,testDots,2020.2.5,59.698284868642006,
11,0,11,0,None,None,None,None,72.20424880000064,73.21712329999718,73.21712329999718,73.5180279999986,73.21712329999718,73.5180279999986,72.20424880000064,74.53461640000023,73.5180279999986,74.51931849999528,74.51931849999528,75.66897429999517,right,0.24460329999419628,75.66897429999517,None,0.06,0.0,0,1,0.0,1,54511.27059,71.19929467999901,,90,1,0,45,1,2021_Feb_10_1523,testDots,2020.2.5,59.698284868642006,
12,0,12,0,None,None,None,None,76.95792670000083,77.9724395000012,77.9724395000012,78.27218129999528,77.9724395000012,78.27218129999528,76.95792670000083,79.28900209999847,78.27218129999528,79.2740313999966,79.2740313999966,80.42495619999681,right,0.30423110000265297,80.42495619999681,None,0.24,0.0,0,1,0.0,1,54516.024964,75.9535697799991,,90,1,0,45,1,2021_Feb_10_1523,testDots,2020.2.5,59.698284868642006,
13,0,13,0,None,None,None,None,81.78092759999709,82.79378390000056,82.79378390000056,83.09367099999508,82.79378390000056,83.09367099999508,81.78092759999709,84.1107583999983,83.09367099999508,84.09463709999545,84.09463709999545,85.2457832,right,0.26770350000151666,85.2457832,None,0.03,0.0,0,1,0.0,1,54520.847547,80.77601477999707,,90,1,0,45,1,2021_Feb_10_1523,testDots,2020.2.5,59.698284868642006,
14,0,14,0,None,None,None,None,86.55064329999732,87.56440830000065,87.56440830000065,87.86460609999631,87.56440830000065,87.86460609999631,86.55064329999732,88.88416919999872,87.86460609999631,88.86664149999706,88.86664149999706,90.01696179999999,right,0.28855789999943227,90.01696179999999,None,0.48,0.0,0,1,1.0,0,54525.617776,85.54685907999811,,90,1,0,45,1,2021_Feb_10_1523,testDots,2020.2.5,59.698284868642006,
15,0,15,0,None,None,None,None,91.35548130000097,92.36966240000038,92.36966240000038,92.67026259999693,92.36966240000038,92.67026259999693,91.35548130000097,93.68808609999542,92.67026259999693,93.6701613999976,93.6701613999976,94.82279159999598,right,0.29080899999826215,94.82279159999598,None,0.24,180.0,0,0,0.0,0,54530.422627,90.35136787999801,,90,1,0,45,1,2021_Feb_10_1523,testDots,2020.2.5,59.698284868642006,
16,0,16,0,None,None,None,None,96.16064170000027,97.17495129999588,97.17495129999588,97.49159979999968,97.17495129999588,97.49159979999968,96.16064170000027,98.50988669999788,97.49159979999968,98.49177009999403,98.49177009999403,99.64356019999832,right,0.37377140000171494,99.64356019999832,None,0.06,0.0,0,1,1.0,0,54535.227419,95.1563575799999,,90,1,0,45,1,2021_Feb_10_1523,testDots,2020.2.5,59.698284868642006,
17,0,17,0,None,None,None,None,101.06712020000123,102.07851389999996,102.07851389999996,102.37937189999502,102.07851389999996,102.37937189999502,101.06712020000123,103.39657799999986,102.37937189999502,103.38026159999572,103.38026159999572,104.53199409999797,left,0.29390630000125384,104.53199409999797,None,0.12,0.0,180,0,1.0,0,54540.134137,100.06183977999609,,90,1,0,45,1,2021_Feb_10_1523,testDots,2020.2.5,59.698284868642006,
18,0,18,0,None,None,None,None,105.87062399999559,106.88464699999895,106.88464699999895,107.18495170000097,106.88464699999895,107.18495170000097,105.87062399999559,108.20248309999442,107.18495170000097,108.18480329999875,108.18480329999875,109.3537950999962,left,0.3516206000058446,109.3537950999962,None,0.48,180.0,180,1,0.0,0,54544.937861,104.86572348000192,,90,1,0,45,1,2021_Feb_10_1523,testDots,2020.2.5,59.698284868642006,
19,0,19,0,None,None,None,None,110.74327069999708,111.75567389999924,111.75567389999924,112.05650469999819,111.75567389999924,112.05650469999819,110.74327069999708,113.07261629999994,112.05650469999819,113.05776989999868,113.05776989999868,114.20749290000094,left,0.36175809999986086,114.20749290000094,None,0.03,180.0,180,1,0.0,0,54549.810827,109.73820217999747,,90,1,0,45,1,2021_Feb_10_1523,testDots,2020.2.5,59.698284868642006,
20,0,20,0,None,None,None,None,115.61150459999772,116.62756960000115,116.62756960000115,116.92669909999677,116.62756960000115,116.92669909999677,115.61150459999772,117.94603709999501,116.92669909999677,117.92824339999788,117.92824339999788,119.07998170000064,left,0.33728830000472954,119.07998170000064,None,0.12,180.0,180,1,1.0,1,54554.679057,114.60815047999932,,90,1,0,45,1,2021_Feb_10_1523,testDots,2020.2.5,59.698284868642006,
21,0,21,0,None,None,None,None,120.46922149999591,121.48085599999467,121.48085599999467,121.78164879999531,121.48085599999467,121.78164879999531,120.46922149999591,122.80006380000123,121.78164879999531,122.78272099999595,122.78272099999595,123.9338340999966,left,0.3399682999952347,123.9338340999966,None,0.03,0.0,180,0,0.0,1,54559.536312,119.46444937999769,,90,1,0,45,1,2021_Feb_10_1523,testDots,2020.2.5,59.698284868642006,
22,0,22,0,None,None,None,None,125.32277269999759,126.33686269999453,126.33686269999453,126.63676879999548,126.33686269999453,126.63676879999548,125.32277269999759,127.65619389999483,126.63676879999548,127.63934119999612,127.63934119999612,128.7885826999991,left,0.3646893999975873,128.7885826999991,None,0.48,180.0,180,1,0.0,0,54564.390248,124.31916397999595,,90,1,0,45,1,2021_Feb_10_1523,testDots,2020.2.5,59.698284868642006,
23,0,23,0,None,None,None,None,130.19425559999945,131.20847759999742,131.20847759999742,131.50867019999714,131.20847759999742,131.50867019999714,130.19425559999945,132.52752640000108,131.50867019999714,132.5091112999944,132.5091112999944,133.67661029999726,right,0.22095229999831645,133.67661029999726,None,0.06,180.0,0,0,1.0,1,54569.261066,129.18922358000128,,90,1,0,45,1,2021_Feb_10_1523,testDots,2020.2.5,59.698284868642006,
24,0,24,0,None,None,None,None,134.94817469999543,135.96324359999562,135.96324359999562,136.26373700000113,135.96324359999562,136.26373700000113,134.94817469999543,137.28218539999943,136.26373700000113,137.26382019999437,137.26382019999437,138.41615669999737,left,0.3215005000020028,138.41615669999737,None,0.24,180.0,180,1,0.0,0,54574.014666,133.94380838000217,,90,1,0,45,1,2021_Feb_10_1523,testDots,2020.2.5,59.698284868642006,
25,0,25,0,None,None,None,None,139.78955169999972,140.80186210000102,140.80186210000102,141.10164309999527,140.80186210000102,141.10164309999527,139.78955169999972,142.1184951999967,141.10164309999527,142.10314199999993,142.10314199999993,143.25425099999848,right,0.3069400999956997,143.25425099999848,None,0.24,180.0,0,0,0.0,0,54578.855034,138.7826566799966,,90,1,0,45,1,2021_Feb_10_1523,testDots,2020.2.5,59.698284868642006,
26,0,26,0,None,None,None,None,144.61096949999774,145.62348199999542,145.62348199999542,145.9223281999948,145.62348199999542,145.9223281999948,144.61096949999774,146.94200419999834,145.9223281999948,146.92448859999422,146.92448859999422,148.07528879999882,left,0.3104855999990832,148.07528879999882,None,0.06,180.0,180,1,1.0,1,54583.67731,143.60464027999552,,90,1,0,45,1,2021_Feb_10_1523,testDots,2020.2.5,59.698284868642006,
27,0,27,0,None,None,None,None,149.43393469999864,150.4442842999997,150.4442842999997,150.745030399994,150.4442842999997,150.745030399994,149.43393469999864,151.7627599999978,150.745030399994,151.74581860000035,151.74581860000035,152.89726769999834,right,0.23238280000077793,152.89726769999834,None,0.12,0.0,0,1,1.0,0,54588.501041,148.42553407999804,,90,1,0,45,1,2021_Feb_10_1523,testDots,2020.2.5,59.698284868642006,
28,0,28,0,None,None,None,None,154.16787379999732,155.1828835999986,155.1828835999986,155.4826505999954,155.1828835999986,155.4826505999954,154.16787379999732,156.49944439999672,155.4826505999954,156.48421179999423,156.48421179999423,157.63397909999912,right,0.31923420000384795,157.63397909999912,None,0.48,0.0,0,1,1.0,0,54593.234875,153.16440567999672,,90,1,0,45,1,2021_Feb_10_1523,testDots,2020.2.5,59.698284868642006,
29,0,29,0,None,None,None,None,159.00661019999825,160.0200784999979,160.0200784999979,160.32042359999468,160.0200784999979,160.32042359999468,159.00661019999825,161.33892650000053,160.32042359999468,161.32100039999932,161.32100039999932,162.47288860000117,right,0.21638610000081826,162.47288860000117,None,0.03,180.0,0,0,0.0,0,54598.073901,158.00250207999926,,90,1,0,45,1,2021_Feb_10_1523,testDots,2020.2.5,59.698284868642006,
30,0,30,0,None,None,None,None,163.7282708999992,164.74078089999966,164.74078089999966,165.0415279999943,164.74078089999966,165.0415279999943,163.7282708999992,166.06049939999502,165.0415279999943,166.04241449999972,166.04241449999972,167.19397639999806,left,0.27952060000097845,167.19397639999806,None,0.06,180.0,180,1,0.0,0,54602.795497,162.7240814799996,,90,1,0,45,1,2021_Feb_10_1523,testDots,2020.2.5,59.698284868642006,
31,0,31,0,None,None,None,None,168.51708819999476,169.53052359999856,169.53052359999856,169.8316052999944,169.53052359999856,169.8316052999944,168.51708819999476,170.8475980000003,169.8316052999944,170.8319440999985,170.8319440999985,171.981581299995,left,0.3238788000016939,171.981581299995,None,0.12,180.0,180,1,1.0,1,54607.58411,167.51204457999557,,90,1,0,45,1,2021_Feb_10_1523,testDots,2020.2.5,59.698284868642006,
32,0,32,0,None,None,None,None,173.35471989999496,174.3688153999974,174.3688153999974,174.6690032999977,174.3688153999974,174.6690032999977,173.35471989999496,175.6867041000005,174.6690032999977,175.66891960000066,175.66891960000066,176.82073039999523,right,0.3408899999994901,176.82073039999523,None,0.48,0.0,0,1,1.0,0,54612.422071,172.34947937999533,,90,1,0,45,1,2021_Feb_10_1523,testDots,2020.2.5,59.698284868642006,
33,0,33,0,None,None,None,None,178.2086635999949,179.22324300000037,179.22324300000037,179.52254990000074,179.22324300000037,179.52254990000074,178.2086635999949,180.54180509999424,179.52254990000074,180.52358860000095,180.52358860000095,181.67602619999525,right,0.3333864000014728,181.67602619999525,None,0.03,180.0,0,0,1.0,1,54617.276015,177.20411247999874,,90,1,0,45,1,2021_Feb_10_1523,testDots,2020.2.5,59.698284868642006,
34,0,34,0,None,None,None,None,183.04760869999882,184.0618351000012,184.0618351000012,184.36224299999594,184.0618351000012,184.36224299999594,183.04760869999882,185.3786342999956,184.36224299999594,185.36362889999873,185.36362889999873,186.51365449999867,right,0.3596434999999474,186.51365449999867,None,0.24,180.0,0,0,1.0,1,54622.114737,182.04315937999928,,90,1,0,45,1,2021_Feb_10_1523,testDots,2020.2.5,59.698284868642006,
35,0,35,0,None,None,None,None,187.92077900000004,188.93204429999605,188.93204429999605,189.2337411999979,188.93204429999605,189.2337411999979,187.92077900000004,190.25180890000047,189.2337411999979,190.23408019999624,190.23408019999624,191.38478349999787,left,0.4007555999996839,191.38478349999787,None,0.03,180.0,180,1,0.0,0,54626.988086,186.915333679998,,90,1,0,45,1,2021_Feb_10_1523,testDots,2020.2.5,59.698284868642006,
36,0,36,0,None,None,None,None,192.82333469999867,193.83694470000046,193.83694470000046,194.1380063999968,193.83694470000046,194.1380063999968,192.82333469999867,195.1563240999967,194.1380063999968,195.13813249999657,195.13813249999657,196.30598499999905,left,0.37557830000150716,196.30598499999905,None,0.24,180.0,180,1,0.0,0,54631.890033,191.81840608000203,,90,1,0,45,1,2021_Feb_10_1523,testDots,2020.2.5,59.698284868642006,
37,0,37,0,None,None,None,None,197.72914619999938,198.74332319999667,198.74332319999667,199.0437038999953,198.74332319999667,199.0437038999953,197.72914619999938,200.05983999999444,199.0437038999953,200.0437871999966,200.0437871999966,201.19559979999758,right,0.3016129000025103,201.19559979999758,None,0.12,0.0,0,1,0.0,1,54636.796047,196.72399887999637,,90,1,0,45,1,2021_Feb_10_1523,testDots,2020.2.5,59.698284868642006,
38,0,38,0,None,None,None,None,202.53477619999467,203.54663530000107,203.54663530000107,203.84729669999797,203.54663530000107,203.84729669999797,202.53477619999467,204.86579769999662,203.84729669999797,204.84959929999604,204.84959929999604,205.99921319999703,left,0.3380156999992323,205.99921319999703,None,0.48,180.0,180,1,0.0,0,54641.602303,201.53009928000102,,90,1,0,45,1,2021_Feb_10_1523,testDots,2020.2.5,59.698284868642006,
39,0,39,0,None,None,None,None,207.38996019999468,208.4019971999951,208.4019971999951,208.70316269999603,208.4019971999951,208.70316269999603,207.38996019999468,209.71982610000123,208.70316269999603,209.70436139999947,209.70436139999947,210.85369759999594,left,0.3319915999963996,210.85369759999594,None,0.06,180.0,180,1,0.0,0,54646.457044,206.38441568000127,,90,1,0,45,1,2021_Feb_10_1523,testDots,2020.2.5,59.698284868642006,
40,0,40,0,None,None,None,None,212.22538050000003,213.2408862999946,213.2408862999946,213.54086779999488,213.2408862999946,213.54086779999488,212.22538050000003,214.5591473999957,213.54086779999488,214.54164189999574,214.54164189999574,215.70917679999548,right,0.4285172000018065,215.70917679999548,None,0.06,0.0,0,1,1.0,0,54651.293173,211.22156347999845,,90,1,0,45,1,2021_Feb_10_1523,testDots,2020.2.5,59.698284868642006,
41,0,41,0,None,None,None,None,217.18007669999497,218.1945878999977,218.1945878999977,218.49537269999564,218.1945878999977,218.49537269999564,217.18007669999497,219.51419929999975,218.49537269999564,219.49643939999805,219.49643939999805,220.64815799999633,right,0.37737120000383584,220.64815799999633,None,0.48,0.0,0,1,1.0,0,54656.247422,216.17645897999756,,90,1,0,45,1,2021_Feb_10_1523,testDots,2020.2.5,59.698284868642006,
42,0,42,0,None,None,None,None,222.07176679999975,223.08273550000013,223.08273550000013,223.3829635000002,223.08273550000013,223.3829635000002,222.07176679999975,224.4007719000001,223.3829635000002,224.3854829999982,224.3854829999982,225.53641000000061,right,0.14514259999850765,225.53641000000061,None,0.24,0.0,0,1,0.0,1,54661.139144,221.06624037999865,,90,1,0,45,1,2021_Feb_10_1523,testDots,2020.2.5,59.698284868642006,
43,0,43,0,None,None,None,None,226.72694939999928,227.73919249999744,227.73919249999744,228.05596279999736,227.73919249999744,228.05596279999736,226.72694939999928,229.07396280000103,228.05596279999736,229.05562869999994,229.05562869999994,230.22374319999653,right,0.401586199994199,230.22374319999653,None,0.12,0.0,0,1,1.0,0,54665.79375,225.72103767999653,,90,1,0,45,1,2021_Feb_10_1523,testDots,2020.2.5,59.698284868642006,
44,0,44,0,None,None,None,None,231.6800063999981,232.69390439999552,232.69390439999552,232.99425479999627,232.69390439999552,232.99425479999627,231.6800063999981,234.01071919999958,232.99425479999627,233.99512289999984,233.99512289999984,235.14479469999787,right,0.3451299000007566,235.14479469999787,None,0.03,180.0,0,0,0.0,0,54670.746848,230.6756074799967,,90,1,0,45,1,2021_Feb_10_1523,testDots,2020.2.5,59.698284868642006,
45,0,45,0,235.53594889999658,267.6608042999942,267.6608042999942,271.65956399999413,271.65956399999413,272.6672802999965,272.6672802999965,272.96680750000087,272.6672802999965,272.96680750000087,271.65956399999413,273.9844901999968,272.96680750000087,273.9686744999999,273.9686744999999,275.11963029999606,left,0.35359500000049593,275.11963029999606,None,0.06,180.0,180,1,1.0,1,54675.602243,235.53036098000013,,90,1,0,45,1,2021_Feb_10_1523,testDots,2020.2.5,59.698284868642006,
46,0,46,0,None,None,None,None,276.52476000000024,277.5380134999941,277.5380134999941,277.8379298,277.5380134999941,277.8379298,276.52476000000024,278.8564910999994,277.8379298,278.8394091000009,278.8394091000009,279.99053649999405,left,0.32303659999888623,279.99053649999405,None,0.03,0.0,180,0,0.0,1,54715.592029,275.51984828000127,,90,1,0,45,1,2021_Feb_10_1523,testDots,2020.2.5,59.698284868642006,
47,0,47,0,None,None,None,None,281.36602049999783,282.37707450000016,282.37707450000016,282.67679539999517,282.37707450000016,282.67679539999517,281.36602049999783,283.6942163999993,282.67679539999517,283.6777699999948,283.6777699999948,284.8445737000002,right,0.2854512000048999,284.8445737000002,None,0.24,0.0,0,1,0.0,1,54720.431975,280.3581395799963,,90,1,0,45,1,2021_Feb_10_1523,testDots,2020.2.5,59.698284868642006,
48,0,48,0,None,None,None,None,286.1691909000001,287.18190799999866,287.18190799999866,287.4983609999981,287.18190799999866,287.4983609999981,286.1691909000001,288.5164214999968,287.4983609999981,288.49812169999495,288.49812169999495,289.65108229999896,right,0.3505139999979292,289.65108229999896,None,0.48,0.0,0,1,1.0,0,54725.235434,285.16360477999547,,90,1,0,45,1,2021_Feb_10_1523,testDots,2020.2.5,59.698284868642006,
49,0,49,0,None,None,None,None,291.0381927999988,292.05198299999756,292.05198299999756,292.35200279999844,292.05198299999756,292.35200279999844,291.0381927999988,293.370339299996,292.35200279999844,293.3537565999941,293.3537565999941,294.50467979999667,left,0.44893559999763966,294.50467979999667,None,0.12,180.0,180,1,1.0,1,54730.105309,290.03384518000234,,90,1,0,45,1,2021_Feb_10_1523,testDots,2020.2.5,59.698284868642006,
50,0,50,0,None,None,None,None,295.99528350000037,297.00710529999924,297.00710529999924,297.30756019999535,297.00710529999924,297.30756019999535,295.99528350000037,298.32528319999983,297.30756019999535,298.3100870999988,298.3100870999988,299.4606464999961,right,0.43693469999561785,299.4606464999961,None,0.12,0.0,0,1,0.0,1,54735.062131,294.98968178000064,,90,1,0,45,1,2021_Feb_10_1523,testDots,2020.2.5,59.698284868642006,
51,0,51,0,None,None,None,None,300.9505591999987,301.9636329999994,301.9636329999994,302.26343809999526,301.9636329999994,302.26343809999526,300.9505591999987,303.2808850000001,302.26343809999526,303.2643966999967,303.2643966999967,304.4147542999999,left,0.42690760000550654,304.4147542999999,None,0.24,180.0,180,1,1.0,1,54740.017168,299.9452035799957,,90,1,0,45,1,2021_Feb_10_1523,testDots,2020.2.5,59.698284868642006,
52,0,52,0,None,None,None,None,305.88687709999795,306.90118029999576,306.90118029999576,307.20150289999583,306.90118029999576,307.20150289999583,305.88687709999795,308.2187216999955,307.20150289999583,308.20169789999636,308.20169789999636,309.3541724999959,left,0.391429799994512,309.3541724999959,None,0.48,180.0,180,1,0.0,0,54744.954351,304.88253267999676,,90,1,0,45,1,2021_Feb_10_1523,testDots,2020.2.5,59.698284868642006,
53,0,53,0,None,None,None,None,310.7937957999966,311.80635549999715,311.80635549999715,312.10721499999636,311.80635549999715,312.10721499999636,310.7937957999966,313.123468400001,312.10721499999636,313.108001099994,313.108001099994,314.2592306000006,right,0.3740061000062269,314.2592306000006,None,0.03,180.0,0,0,0.0,0,54749.860065,309.7874731800009,,90,1,0,45,1,2021_Feb_10_1523,testDots,2020.2.5,59.698284868642006,
54,0,54,0,None,None,None,None,315.6806415999963,316.69446819999575,316.69446819999575,316.99406589999853,316.69446819999575,316.99406589999853,315.6806415999963,318.0124971999976,316.99406589999853,317.9964194999993,317.9964194999993,319.16223249999894,right,0.33513459999812767,319.16223249999894,None,0.06,180.0,0,0,0.0,0,54754.747306,314.67574198000216,,90,1,0,45,1,2021_Feb_10_1523,testDots,2020.2.5,59.698284868642006,
55,0,55,0,None,None,None,None,320.53832169999805,321.5483288999967,321.5483288999967,321.8493595999971,321.5483288999967,321.8493595999971,320.53832169999805,322.8667684999964,321.8493595999971,322.8504799000002,322.8504799000002,324.01694329999737,right,0.38522830000147223,324.01694329999737,None,0.03,180.0,0,0,0.0,0,54759.604806,319.5300090799981,,90,1,0,45,1,2021_Feb_10_1523,testDots,2020.2.5,59.698284868642006,
56,0,56,0,None,None,None,None,325.439452300001,326.4537734999976,326.4537734999976,326.7540425999978,326.4537734999976,326.7540425999978,325.439452300001,327.7706296999968,326.7540425999978,327.75567439999577,327.75567439999577,328.9067716999998,left,0.3426160999952117,328.9067716999998,None,0.24,180.0,180,1,1.0,1,54764.507843,324.4357436799953,,90,1,0,45,1,2021_Feb_10_1523,testDots,2020.2.5,59.698284868642006,
57,0,57,0,None,None,None,None,330.2965688999975,331.309302499998,331.309302499998,331.6089767999947,331.309302499998,331.6089767999947,330.2965688999975,332.6263475999949,331.6089767999947,332.6103210000001,332.6103210000001,333.76189929999964,right,0.3598282000020845,333.76189929999964,None,0.12,0.0,0,1,0.0,1,54769.363326,329.2910223799961,,90,1,0,45,1,2021_Feb_10_1523,testDots,2020.2.5,59.698284868642006,
58,0,58,0,None,None,None,None,335.16709869999613,336.1796497999967,336.1796497999967,336.48012319999543,336.1796497999967,336.48012319999543,335.16709869999613,337.4987949999995,336.48012319999543,337.4822669999994,337.4822669999994,338.6331319999954,right,0.4163817000007839,338.6331319999954,None,0.48,0.0,0,1,1.0,0,54774.234017,334.1618903800015,,90,1,0,45,1,2021_Feb_10_1523,testDots,2020.2.5,59.698284868642006,
59,0,59,0,None,None,None,None,340.0882386999947,341.1023140999969,341.1023140999969,341.4023152000009,341.1023140999969,341.4023152000009,340.0882386999947,342.4188608999975,341.4023152000009,342.4036711999943,342.4036711999943,343.5533365999945,right,0.3847916000013356,343.5533365999945,None,0.06,0.0,0,1,0.0,1,54779.154582,339.0832811799962,,90,1,0,45,1,2021_Feb_10_1523,testDots,2020.2.5,59.698284868642006,
60,0,60,0,None,None,None,None,344.9742874000003,345.97264889999497,345.97264889999497,346.27275559999543,345.97264889999497,346.27275559999543,344.9742874000003,347.29178039999533,346.27275559999543,347.27341319999687,347.27341319999687,348.42526299999736,right,0.43998629999987315,348.42526299999736,None,0.06,180.0,0,0,1.0,1,54784.04219,343.9716946800006,,90,1,0,45,1,2021_Feb_10_1523,testDots,2020.2.5,59.698284868642006,
61,0,61,0,None,None,None,None,349.9148126,350.9279769999994,350.9279769999994,351.22822969999834,350.9279769999994,351.22822969999834,349.9148126,352.2465802000006,351.22822969999834,352.2289732999998,352.2289732999998,353.3807037999941,right,0.3488002999947639,353.3807037999941,None,0.24,0.0,0,1,1.0,0,54788.982367,348.9106053799958,,90,1,0,45,1,2021_Feb_10_1523,testDots,2020.2.5,59.698284868642006,
62,0,62,0,None,None,None,None,354.76836560000083,355.7825640999945,355.7825640999945,356.08270629999606,355.7825640999945,356.08270629999606,354.76836560000083,357.1012346999996,356.08270629999606,357.0845277999979,357.0845277999979,358.25338469999406,left,0.30026360000192653,358.25338469999406,None,0.12,180.0,180,1,0.0,0,54793.835525,353.76520087999666,,90,1,0,45,1,2021_Feb_10_1523,testDots,2020.2.5,59.698284868642006,
63,0,63,0,None,None,None,None,359.59101999999984,360.6056518999976,360.6056518999976,360.9218043000001,360.6056518999976,360.9218043000001,359.59101999999984,361.9398266999997,360.9218043000001,361.9225484999988,361.9225484999988,363.0899852000002,right,0.31937140000081854,363.0899852000002,None,0.48,0.0,0,1,0.0,1,54798.65863,358.58652298000084,,90,1,0,45,1,2021_Feb_10_1523,testDots,2020.2.5,59.698284868642006,
64,0,64,0,None,None,None,None,364.4464227999997,365.46042089999537,365.46042089999537,365.7602895999953,365.46042089999537,365.7602895999953,364.4464227999997,366.77686990000075,365.7602895999953,366.7611182999972,366.7611182999972,367.9118393999961,left,0.30565239999850746,367.9118393999961,None,0.03,0.0,180,0,0.0,1,54803.51348,363.44155398,,90,1,0,45,1,2021_Feb_10_1523,testDots,2020.2.5,59.698284868642006,
65,0,65,0,None,None,None,None,369.26822990000073,370.28189369999745,370.28189369999745,370.5977539999949,370.28189369999745,370.5977539999949,369.26822990000073,371.6165111999944,370.5977539999949,371.5978376999992,371.5978376999992,372.7508258999951,right,0.32273390000045765,372.7508258999951,None,0.06,0.0,0,1,0.0,1,54808.33403,368.26229368000054,,90,1,0,45,1,2021_Feb_10_1523,testDots,2020.2.5,59.698284868642006,
66,0,66,0,None,None,None,None,374.12266319999617,375.13585729999613,375.13585729999613,375.4367487999989,375.13585729999613,375.4367487999989,374.12266319999617,376.4544390999945,375.4367487999989,376.43687159999536,376.43687159999536,377.58876579999924,right,0.22050669999589445,377.58876579999924,None,0.24,0.0,0,1,0.0,1,54813.189565,373.1174981799966,,90,1,0,45,1,2021_Feb_10_1523,testDots,2020.2.5,59.698284868642006,
67,0,67,0,None,None,None,None,378.8593161999961,379.8743437999947,379.8743437999947,380.17412830000103,379.8743437999947,380.17412830000103,378.8593161999961,381.19196839999495,380.17412830000103,381.1762114999947,381.1762114999947,382.3258305999989,left,0.46031390000280226,382.3258305999989,None,0.12,180.0,180,1,1.0,1,54817.927068,377.85540458000173,,90,1,0,45,1,2021_Feb_10_1523,testDots,2020.2.5,59.698284868642006,
68,0,68,0,None,None,None,None,383.83070459999726,384.84485519999726,384.84485519999726,385.1452183000001,384.84485519999726,385.1452183000001,383.83070459999726,386.1639802999998,385.1452183000001,386.14636880000035,386.14636880000035,387.31437229999574,right,0.3428935999982059,387.31437229999574,None,0.03,0.0,0,1,0.0,1,54822.898149,382.8260076799968,,90,1,0,45,1,2021_Feb_10_1523,testDots,2020.2.5,59.698284868642006,
69,0,69,0,None,None,None,None,388.70458320000034,389.71745259999443,389.71745259999443,390.0181353000007,389.71745259999443,390.0181353000007,388.70458320000034,391.03490169999714,390.0181353000007,391.01868219999596,391.01868219999596,392.16996780000045,left,0.27954920000047423,392.16996780000045,None,0.48,180.0,180,1,0.0,0,54827.771099,387.69874217999745,,90,1,0,45,1,2021_Feb_10_1523,testDots,2020.2.5,59.698284868642006,
70,0,70,0,None,None,None,None,393.4915101999941,394.50606989999505,394.50606989999505,394.80621869999595,394.50606989999505,394.80621869999595,393.4915101999941,395.8240791999997,394.80621869999595,395.8062080999953,395.8062080999953,396.95812450000085,left,0.3000434999994468,396.95812450000085,None,0.24,180.0,180,1,0.0,0,54832.559049,392.48666407999985,,90,1,0,45,1,2021_Feb_10_1523,testDots,2020.2.5,59.698284868642006,
71,0,71,0,None,None,None,None,398.29801549999684,399.3099005999975,399.3099005999975,399.6103293999986,399.3099005999975,399.6103293999986,398.29801549999684,400.62819269999454,399.6103293999986,400.6117105999947,400.6117105999947,401.76167749999877,right,0.3522009000007529,401.76167749999877,None,0.12,0.0,0,1,1.0,0,54837.364725,397.29210307999597,,90,1,0,45,1,2021_Feb_10_1523,testDots,2020.2.5,59.698284868642006,
72,0,72,0,None,None,None,None,403.1533610999977,404.16547879999416,404.16547879999416,404.4651592999944,404.16547879999416,404.4651592999944,403.1533610999977,405.4823570000008,404.4651592999944,405.46642769999744,405.46642769999744,406.6167448999986,right,0.2728010999999242,406.6167448999986,None,0.06,0.0,0,1,0.0,1,54842.22036,402.1473086800004,,90,1,0,45,1,2021_Feb_10_1523,testDots,2020.2.5,59.698284868642006,
73,0,73,0,None,None,None,None,407.9392996999959,408.95294199999626,408.95294199999626,409.25390559999505,408.95294199999626,409.25390559999505,407.9392996999959,410.2704153999948,409.25390559999505,410.2545211999968,410.2545211999968,411.40539010000066,right,0.33994610000081593,411.40539010000066,None,0.03,0.0,0,1,0.0,1,54847.006865,406.93469618000086,,90,1,0,45,1,2021_Feb_10_1523,testDots,2020.2.5,59.698284868642006,
74,0,74,0,None,None,None,None,412.79375009999785,413.8081944000005,413.8081944000005,414.1080981999985,413.8081944000005,414.1080981999985,412.79375009999785,415.1262007999976,414.1080981999985,415.1091651999959,415.1091651999959,416.26079759999993,right,0.4607546999977785,416.26079759999993,None,0.48,0.0,0,1,1.0,0,54851.861102,411.7885938799998,,90,1,0,45,1,2021_Feb_10_1523,testDots,2020.2.5,59.698284868642006,
75,0,75,0,None,None,None,None,417.76625489999424,418.77887159999955,418.77887159999955,419.08064549999835,418.77887159999955,419.08064549999835,417.76625489999424,420.0974905999974,419.08064549999835,420.0807857999971,420.0807857999971,421.23140489999787,left,0.3300967999966815,421.23140489999787,None,0.24,180.0,180,1,0.0,0,54856.833097,416.76137097999595,,90,1,0,45,1,2021_Feb_10_1523,testDots,2020.2.5,59.698284868642006,
76,0,76,0,None,None,None,None,422.60423949999677,423.6168577999997,423.6168577999997,423.917744499995,423.6168577999997,423.917744499995,422.60423949999677,424.9358773999993,423.917744499995,424.9183632999993,424.9183632999993,426.08629899999505,left,0.3793117999957758,426.08629899999505,None,0.03,180.0,180,1,0.0,0,54861.670611,421.5988242799983,,90,1,0,45,1,2021_Feb_10_1523,testDots,2020.2.5,59.698284868642006,
77,0,77,0,None,None,None,None,427.50983079999423,428.52280629999586,428.52280629999586,428.8233657999954,428.52280629999586,428.8233657999954,427.50983079999423,429.8404187999986,428.8233657999954,429.82429109999794,429.82429109999794,430.9748757999987,left,0.322677999996813,430.9748757999987,None,0.48,180.0,180,1,0.0,0,54866.576118,426.5038446799997,,90,1,0,45,1,2021_Feb_10_1523,testDots,2020.2.5,59.698284868642006,
78,0,78,0,None,None,None,None,432.34784429999854,433.35962550000113,433.35962550000113,433.6600088999985,433.35962550000113,433.6600088999985,432.34784429999854,434.6785935000007,433.6600088999985,434.6618698999955,434.6618698999955,435.8131596999956,left,0.32418740000139223,435.8131596999956,None,0.12,180.0,180,1,1.0,1,54871.414621,431.34296097999754,,90,1,0,45,1,2021_Feb_10_1523,testDots,2020.2.5,59.698284868642006,
79,0,79,0,None,None,None,None,437.1828733000002,438.198086599994,438.198086599994,438.50025829999504,438.198086599994,438.50025829999504,437.1828733000002,439.51737019999564,438.50025829999504,439.4993042999995,439.4993042999995,440.6669901999994,right,0.23824720000266097,440.6669901999994,None,0.06,0.0,0,1,0.0,1,54876.250467,436.17934328000115,,90,1,0,45,1,2021_Feb_10_1523,testDots,2020.2.5,59.698284868642006,
80,0,80,0,None,None,None,None,441.95746679999866,442.9704841999992,442.9704841999992,443.2711395000006,442.9704841999992,443.2711395000006,441.95746679999866,444.2878974999985,443.2711395000006,444.27207500000077,444.27207500000077,445.4214785000004,left,0.4518284000005224,445.4214785000004,None,0.48,180.0,180,1,1.0,1,54881.024538,440.9529429799993,,90,1,0,45,1,2021_Feb_10_1523,testDots,2020.2.5,59.698284868642006,
81,0,81,0,None,None,None,None,446.9106692999994,447.9258470999994,447.9258470999994,448.2254946999965,447.9258470999994,448.2254946999965,446.9106692999994,449.2426717999988,448.2254946999965,449.2274938999981,449.2274938999981,450.3782960999961,left,0.34308790000068257,450.3782960999961,None,0.06,180.0,180,1,1.0,1,54885.978958,445.9063218799972,,90,1,0,45,1,2021_Feb_10_1523,testDots,2020.2.5,59.698284868642006,
82,0,82,0,None,None,None,None,451.76666059999843,452.780640099998,452.780640099998,453.0809881999958,452.780640099998,453.0809881999958,451.76666059999843,454.09796029999416,453.0809881999958,454.0806708999953,454.0806708999953,455.23333559999446,right,0.38395560000208206,455.23333559999446,None,0.03,0.0,0,1,1.0,0,54890.834119,450.7620351799967,,90,1,0,45,1,2021_Feb_10_1523,testDots,2020.2.5,59.698284868642006,
83,0,83,0,None,None,None,None,456.6545727999983,457.6680497999987,457.6680497999987,457.96938489999593,457.6680497999987,457.96938489999593,456.6545727999983,458.98678339999606,457.96938489999593,458.9695319999955,458.9695319999955,460.1368144999942,right,0.41774489999806974,460.1368144999942,None,0.12,0.0,0,1,1.0,0,54895.720901,455.6497240799988,,90,1,0,45,1,2021_Feb_10_1523,testDots,2020.2.5,59.698284868642006,
84,0,84,0,None,None,None,None,461.59225439999864,462.6070178999944,462.6070178999944,462.9073711999954,462.6070178999944,462.9073711999954,461.59225439999864,463.9240288000001,462.9073711999954,463.90870110000105,463.90870110000105,465.0584497999953,left,0.3428545999995549,465.0584497999953,None,0.24,180.0,180,1,0.0,0,54900.659911,460.58792827999855,,90,1,0,45,1,2021_Feb_10_1523,testDots,2020.2.5,59.698284868642006,
85,0,85,0,None,None,None,None,466.44706179999775,467.46199279999564,467.46199279999564,467.76169149999623,467.46199279999564,467.76169149999623,466.44706179999775,468.7785603999946,467.76169149999623,468.7626616999987,468.7626616999987,469.9137688999981,right,0.4554811999987578,469.9137688999981,None,0.48,0.0,0,1,1.0,0,54905.513787,465.4422368799976,,90,1,0,45,1,2021_Feb_10_1523,testDots,2020.2.5,59.698284868642006,
86,0,86,0,None,None,None,None,471.41983880000043,472.43215809999674,472.43215809999674,472.73288659999525,472.43215809999674,472.73288659999525,471.41983880000043,473.75213009999425,472.73288659999525,473.7347251999963,473.7347251999963,474.88461399999505,left,0.32465529999899445,474.88461399999505,None,0.03,180.0,180,1,1.0,1,54910.486565,470.415213979996,,90,1,0,45,1,2021_Feb_10_1523,testDots,2020.2.5,59.698284868642006,
87,0,87,0,None,None,None,None,476.25681339999574,477.2714119999946,477.2714119999946,477.57205740000063,477.2714119999946,477.57205740000063,476.25681339999574,478.589209699996,477.57205740000063,478.57259769999655,478.57259769999655,479.72407559999556,right,0.2772746000046027,479.72407559999556,None,0.06,0.0,0,1,0.0,1,54915.324649,475.2521105800013,,90,1,0,45,1,2021_Feb_10_1523,testDots,2020.2.5,59.698284868642006,
88,0,88,0,None,None,None,None,481.04472829999577,482.0586977999992,482.0586977999992,482.35871719999705,482.0586977999992,482.35871719999705,481.04472829999577,483.3782690999942,482.35871719999705,483.3601813999994,483.3601813999994,484.51182880000124,left,0.30572920000122394,484.51182880000124,None,0.24,180.0,180,1,1.0,1,54920.111588,480.0402922799956,,90,1,0,45,1,2021_Feb_10_1523,testDots,2020.2.5,59.698284868642006,
89,0,89,0,None,None,None,None,485.8661537000007,486.88006949999544,486.88006949999544,487.18066649999673,486.88006949999544,487.18066649999673,485.8661537000007,488.19872409999516,487.18066649999673,488.1815606999953,488.1815606999953,489.33343729999615,right,0.26025909999589203,489.33343729999615,None,0.12,0.0,0,1,1.0,0,54924.933974,484.86263067999676,,90,1,0,45,1,2021_Feb_10_1523,testDots,2020.2.5,59.698284868642006,
90,0,90,0,489.64062289999856,515.2585573999968,515.2585573999968,519.2555637999976,519.2555637999976,520.2645202999993,520.2645202999993,520.5650357999984,520.2645202999993,520.5650357999984,519.2555637999976,521.5825832999981,520.5650357999984,521.5645576999959,521.5645576999959,522.7166495999991,left,0.3649777000027825,522.7166495999991,None,0.03,0.0,180,0,0.0,1,54929.706952,489.6345178800009,,90,1,0,45,1,2021_Feb_10_1523,testDots,2020.2.5,59.698284868642006,
91,0,91,0,None,None,None,None,524.1222078999999,525.1362298999957,525.1362298999957,525.4360149999993,525.1362298999957,525.4360149999993,524.1222078999999,526.4527613999962,525.4360149999993,526.4376246999964,526.4376246999964,527.5876375999942,right,0.3504583999965689,527.5876375999942,None,0.48,0.0,0,1,0.0,1,54963.19002,523.118341680002,,90,1,0,45,1,2021_Feb_10_1523,testDots,2020.2.5,59.698284868642006,
92,0,92,0,None,None,None,None,528.9787768999959,529.9911330999967,529.9911330999967,530.3072743000012,529.9911330999967,530.3072743000012,528.9787768999959,531.3250225999946,530.3072743000012,531.3077895999959,531.3077895999959,532.4601407000009,left,0.3091108000007807,532.4601407000009,None,0.06,180.0,180,1,1.0,1,54968.044043,527.9721333800014,,90,1,0,45,1,2021_Feb_10_1523,testDots,2020.2.5,59.698284868642006,
93,0,93,0,None,None,None,None,533.8169765999992,534.8279301000002,534.8279301000002,535.1281976999962,534.8279301000002,535.1281976999962,533.8169765999992,536.147676499997,535.1281976999962,536.1300285999969,536.1300285999969,537.2803416999959,right,0.29691140000068117,537.2803416999959,None,0.12,0.0,0,1,0.0,1,54972.883995,532.8118853800013,,90,1,0,45,1,2021_Feb_10_1523,testDots,2020.2.5,59.698284868642006,
94,0,94,0,None,None,None,None,538.6195747999955,539.6335232999991,539.6335232999991,539.9337522999995,539.6335232999991,539.9337522999995,538.6195747999955,540.9521804999968,539.9337522999995,540.9350162999981,540.9350162999981,542.1022394999964,left,0.3070214000035776,542.1022394999964,None,0.24,180.0,180,1,1.0,1,54977.686277,537.6144888800015,,90,1,0,45,1,2021_Feb_10_1523,testDots,2020.2.5,59.698284868642006,
95,0,95,0,None,None,None,None,543.4575423999995,544.4720223999975,544.4720223999975,544.7725407999969,544.4720223999975,544.7725407999969,543.4575423999995,545.7886982999989,544.7725407999969,545.7733653999967,545.7733653999967,546.9237397999968,right,0.30177910000202246,546.9237397999968,None,0.03,0.0,0,1,1.0,0,54982.525775,542.4541144799994,,90,1,0,45,1,2021_Feb_10_1523,testDots,2020.2.5,59.698284868642006,
96,0,96,0,None,None,None,None,548.2623260999972,549.2758998999998,549.2758998999998,549.5761551999967,549.2758998999998,549.5761551999967,548.2623260999972,550.5952409999954,549.5761551999967,550.5772987999953,550.5772987999953,551.7286916000012,right,0.2808158999978332,551.7286916000012,None,0.06,180.0,0,0,1.0,1,54987.329521,547.2577298799995,,90,1,0,45,1,2021_Feb_10_1523,testDots,2020.2.5,59.698284868642006,
97,0,97,0,None,None,None,None,553.0519695999974,554.0642664999978,554.0642664999978,554.3645379999944,554.0642664999978,554.3645379999944,553.0519695999974,555.3826190999971,554.3645379999944,555.3659063999949,555.3659063999949,556.5164095,right,0.3331995000044117,556.5164095,None,0.24,180.0,0,0,0.0,0,54992.1191,552.0468584800008,,90,1,0,45,1,2021_Feb_10_1523,testDots,2020.2.5,59.698284868642006,
98,0,98,0,None,None,None,None,557.8879171999943,558.9027535999994,558.9027535999994,559.2030123000004,558.9027535999994,559.2030123000004,557.8879171999943,560.2212246999989,559.2030123000004,560.2042638999992,560.2042638999992,561.3716402999999,right,0.3340343000018038,561.3716402999999,None,0.48,0.0,0,1,0.0,1,54996.955328,556.8833818800019,,90,1,0,45,1,2021_Feb_10_1523,testDots,2020.2.5,59.698284868642006,
99,0,99,0,None,None,None,None,562.7432607999945,563.7579382999975,563.7579382999975,564.0578305999952,563.7579382999975,564.0578305999952,562.7432607999945,565.0756522000011,564.0578305999952,565.058303400001,565.058303400001,566.2273013999948,right,0.26995439999882365,566.2273013999948,None,0.12,0.0,0,1,0.0,1,55001.810988,561.7387580799957,,90,1,0,45,1,2021_Feb_10_1523,testDots,2020.2.5,59.698284868642006,
100,0,100,0,None,None,None,None,567.5498837999985,568.5632340000011,568.5632340000011,568.8632843999949,568.5632340000011,568.8632843999949,567.5498837999985,569.8799691999957,568.8632843999949,569.8641388999968,569.8641388999968,571.0155603999956,left,0.2898929999937536,571.0155603999956,None,0.48,180.0,180,1,1.0,1,55006.617471,566.5445166799952,,90,1,0,45,1,2021_Feb_10_1523,testDots,2020.2.5,59.698284868642006,
101,0,101,0,None,None,None,None,572.3541161999965,573.366578299996,573.366578299996,573.6669922000001,573.366578299996,573.6669922000001,572.3541161999965,574.6847433000003,573.6669922000001,574.6690681999971,574.6690681999971,575.8198216999954,right,0.1663466000027256,575.8198216999954,None,0.03,180.0,0,0,0.0,0,55011.421516,571.3492184800023,,90,1,0,45,1,2021_Feb_10_1523,testDots,2020.2.5,59.698284868642006,
102,0,102,0,None,None,None,None,577.0309912999946,578.038410000001,578.038410000001,578.3387511999972,578.038410000001,578.3387511999972,577.0309912999946,579.3571640000009,578.3387511999972,579.3390584000008,579.3390584000008,580.5070994999987,right,0.1983877000020584,580.5070994999987,None,0.06,0.0,0,1,0.0,1,55016.096983,576.0202515800017,,90,1,0,45,1,2021_Feb_10_1523,testDots,2020.2.5,59.698284868642006,
103,0,103,0,None,None,None,None,581.7449577000007,582.7611801999956,582.7611801999956,583.0603202999991,582.7611801999956,583.0603202999991,581.7449577000007,584.078366099995,583.0603202999991,584.0612507999977,584.0612507999977,585.2283431999967,left,0.245060299996112,585.2283431999967,None,0.24,180.0,180,1,0.0,0,55020.812917,580.7412221800012,,90,1,0,45,1,2021_Feb_10_1523,testDots,2020.2.5,59.698284868642006,
104,0,104,0,None,None,None,None,586.518399499997,587.531991799995,587.531991799995,587.8321749999959,587.531991799995,587.8321749999959,586.518399499997,588.8490380000003,587.8321749999959,588.8332927999945,588.8332927999945,589.9829367999992,left,0.25159870000061346,589.9829367999992,None,0.12,180.0,180,1,1.0,1,55025.584912,585.5122235799979,,90,1,0,45,1,2021_Feb_10_1523,testDots,2020.2.5,59.698284868642006,
105,0,105,0,None,None,None,None,591.2723487999974,592.2866689000002,592.2866689000002,592.5870714999983,592.2866689000002,592.5870714999983,591.2723487999974,593.6036975999959,592.5870714999983,593.5884100999974,593.5884100999974,594.7395180999956,right,0.1897845999992569,594.7395180999956,None,0.03,180.0,0,0,1.0,1,55030.339994,590.2682696800009,,90,1,0,45,1,2021_Feb_10_1523,testDots,2020.2.5,59.698284868642006,
106,0,106,0,None,None,None,None,595.9772750999982,596.9895717999971,596.9895717999971,597.2921044999966,596.9895717999971,597.2921044999966,595.9772750999982,598.3091251000005,597.2921044999966,598.2926585999958,598.2926585999958,599.443394199996,left,0.24615999999514315,599.443394199996,None,0.24,180.0,180,1,1.0,1,55035.044593,594.9723338800002,,90,1,0,45,1,2021_Feb_10_1523,testDots,2020.2.5,59.698284868642006,
107,0,107,0,None,None,None,None,600.7309691999981,601.7461512999944,601.7461512999944,602.0463526999956,601.7461512999944,602.0463526999956,600.7309691999981,603.0640041999941,602.0463526999956,603.0474621999965,603.0474621999965,604.1978489999965,left,0.17953100000158884,604.1978489999965,None,0.48,180.0,180,1,1.0,1,55039.798488,599.727982479996,,90,1,0,45,1,2021_Feb_10_1523,testDots,2020.2.5,59.698284868642006,
108,0,108,0,None,None,None,None,605.4209953999962,606.4342025000005,606.4342025000005,606.7343121999947,606.4342025000005,606.7343121999947,605.4209953999962,607.7513723999946,606.7343121999947,607.7355848999941,607.7355848999941,608.8856257999942,right,0.3080091000010725,608.8856257999942,None,0.12,0.0,0,1,1.0,0,55044.48819,604.415880379999,,90,1,0,45,1,2021_Feb_10_1523,testDots,2020.2.5,59.698284868642006,
109,0,109,0,None,None,None,None,610.2421866000004,611.2556308999992,611.2556308999992,611.5564249999952,611.2556308999992,611.5564249999952,610.2421866000004,612.5724560999952,611.5564249999952,612.5564321999991,612.5564321999991,613.7081980000003,right,0.18928500000038184,613.7081980000003,None,0.06,180.0,0,0,0.0,0,55049.308732,609.2361073799955,,90,1,0,45,1,2021_Feb_10_1523,testDots,2020.2.5,59.698284868642006,
110,0,110,0,None,None,None,None,614.9451569999947,615.9587812999962,615.9587812999962,616.2595985000007,615.9587812999962,616.2595985000007,614.9451569999947,617.2777392999997,616.2595985000007,617.2619447999969,617.2619447999969,618.4125576000006,right,0.2774333999986993,618.4125576000006,None,0.03,180.0,0,0,0.0,0,55054.012635,613.9414401799993,,90,1,0,45,1,2021_Feb_10_1523,testDots,2020.2.5,59.698284868642006,
111,0,111,0,None,None,None,None,619.7347553,620.7473293000003,620.7473293000003,621.0478895999986,620.7473293000003,621.0478895999986,619.7347553,622.0661983999962,621.0478895999986,622.0500006000002,622.0500006000002,623.1999433999954,left,0.08150769999338081,623.1999433999954,None,0.12,180.0,180,1,1.0,1,55058.80224,618.7300475799973,,90,1,0,45,1,2021_Feb_10_1523,testDots,2020.2.5,59.698284868642006,
112,0,112,0,None,None,None,None,624.3227136999994,625.3364524999997,625.3364524999997,625.6366816999944,625.3364524999997,625.6366816999944,624.3227136999994,626.6535644999967,625.6366816999944,626.6381522000011,626.6381522000011,627.7876518999983,right,0.3497787999949651,627.7876518999983,None,0.06,0.0,0,1,1.0,0,55063.389936,623.3180357799981,,90,1,0,45,1,2021_Feb_10_1523,testDots,2020.2.5,59.698284868642006,
113,0,113,0,None,None,None,None,629.1768382999944,630.1913376999946,630.1913376999946,630.4916087999954,630.1913376999946,630.4916087999954,629.1768382999944,631.5083315999946,630.4916087999954,631.4922051999965,631.4922051999965,632.642637099998,right,0.17491739999968559,632.642637099998,None,0.24,0.0,0,1,0.0,1,55068.24471,628.1726701799969,,90,1,0,45,1,2021_Feb_10_1523,testDots,2020.2.5,59.698284868642006,
114,0,114,0,None,None,None,None,633.865750099998,634.879414899995,634.879414899995,635.1790420999969,634.879414899995,635.1790420999969,633.865750099998,636.1962369999965,635.1790420999969,636.1806794000004,636.1806794000004,637.3317446000001,right,0.2539604999983567,637.3317446000001,None,0.48,0.0,0,1,0.0,1,55072.932111,632.8606643799983,,90,1,0,45,1,2021_Feb_10_1523,testDots,2020.2.5,59.698284868642006,
115,0,115,0,None,None,None,None,638.6365911999965,639.6492718999943,639.6492718999943,639.950178799998,639.6492718999943,639.950178799998,638.6365911999965,640.9683442999958,639.950178799998,640.9518735999955,640.9518735999955,642.1026762999973,right,0.19461610000143992,642.1026762999973,None,0.12,180.0,0,0,1.0,1,55077.70429,637.6322609800015,,90,1,0,45,1,2021_Feb_10_1523,testDots,2020.2.5,59.698284868642006,
116,0,116,0,None,None,None,None,643.341041599997,644.3547923000006,644.3547923000006,644.656249599997,644.3547923000006,644.656249599997,643.341041599997,645.673332499995,644.656249599997,645.6555297999948,645.6555297999948,646.8228926999946,right,0.17841130000306293,646.8228926999946,None,0.06,180.0,0,0,1.0,1,55082.408015,642.3357373799997,,90,1,0,45,1,2021_Feb_10_1523,testDots,2020.2.5,59.698284868642006,
117,0,117,0,None,None,None,None,648.0469249999951,649.0597256999972,649.0597256999972,649.3603704999987,649.0597256999972,649.3603704999987,648.0469249999951,650.3775812999957,649.3603704999987,650.360897599996,650.360897599996,651.5117948999978,right,0.32953290000295965,651.5117948999978,None,0.03,180.0,0,0,1.0,1,55087.114628,647.0426969799998,,90,1,0,45,1,2021_Feb_10_1523,testDots,2020.2.5,59.698284868642006,
118,0,118,0,None,None,None,None,652.8827085999947,653.8970637999955,653.8970637999955,654.1982951999962,653.8970637999955,654.1982951999962,652.8827085999947,655.2168222999971,654.1982951999962,655.1982719999942,655.1982719999942,656.3497975999999,right,0.21172630000364734,656.3497975999999,None,0.24,0.0,0,1,0.0,1,55091.950687,651.8787392799975,,90,1,0,45,1,2021_Feb_10_1523,testDots,2020.2.5,59.698284868642006,
119,0,119,0,None,None,None,None,657.6067079999993,658.6182945999972,658.6182945999972,658.9186496999973,658.6182945999972,658.9186496999973,657.6067079999993,659.9371261999986,658.9186496999973,659.9211834999951,659.9211834999951,661.0715420999986,left,0.25079559999721823,661.0715420999986,None,0.48,180.0,180,1,0.0,0,55096.673536,656.6016841799981,,90,1,0,45,1,2021_Feb_10_1523,testDots,2020.2.5,59.698284868642006,
120,0,120,0,None,None,None,None,662.3599182999969,663.372969899996,663.372969899996,663.6746303999971,663.372969899996,663.6746303999971,662.3599182999969,664.6922648999971,663.6746303999971,664.6756991000002,664.6756991000002,665.8256264999945,right,0.24792100000195205,665.8256264999945,None,0.12,0.0,0,1,0.0,1,55101.428007,661.355975080002,,90,1,0,45,1,2021_Feb_10_1523,testDots,2020.2.5,59.698284868642006,
121,0,121,0,None,None,None,None,667.1153257999977,668.1287974000006,668.1287974000006,668.428975099996,668.1287974000006,668.428975099996,667.1153257999977,669.4468885999959,668.428975099996,669.4303925999993,669.4303925999993,670.5807084999979,right,0.24496540000109235,670.5807084999979,None,0.24,0.0,0,1,0.0,1,55106.182403,666.1107393800019,,90,1,0,45,1,2021_Feb_10_1523,testDots,2020.2.5,59.698284868642006,
122,0,122,0,None,None,None,None,671.8703549999991,672.8839488000012,672.8839488000012,673.1841860999994,672.8839488000012,673.1841860999994,671.8703549999991,674.2010138999976,673.1841860999994,674.185467299998,674.185467299998,675.3346769999989,left,0.1868882000053418,675.3346769999989,None,0.06,180.0,180,1,0.0,0,55110.937691,670.865490779998,,90,1,0,45,1,2021_Feb_10_1523,testDots,2020.2.5,59.698284868642006,
123,0,123,0,None,None,None,None,676.5594543999978,677.5719855999996,677.5719855999996,677.8879691999973,677.5719855999996,677.8879691999973,676.5594543999978,678.9064915999988,677.8879691999973,678.8888583999942,678.8888583999942,680.0407752999963,right,0.03290180000476539,680.0407752999963,None,0.48,0.0,0,1,0.0,1,55115.626362,675.5539854799979,,90,1,0,45,1,2021_Feb_10_1523,testDots,2020.2.5,59.698284868642006,
124,0,124,0,None,None,None,None,681.1115222999942,682.1264178999991,682.1264178999991,682.4270329999999,682.1264178999991,682.4270329999999,681.1115222999942,683.4445491000006,682.4270329999999,683.427844400001,683.427844400001,684.5789536999946,right,0.19053770000027725,684.5789536999946,None,0.03,180.0,0,0,0.0,0,55120.177956,680.1067795800016,,90,1,0,45,1,2021_Feb_10_1523,testDots,2020.2.5,59.698284868642006,
125,0,125,0,None,None,None,None,685.8180824999945,686.8302970000004,686.8302970000004,687.1321557999981,686.8302970000004,687.1321557999981,685.8180824999945,688.1491145999971,687.1321557999981,688.1323900999996,688.1323900999996,689.2823011,right,0.22316829999908805,689.2823011,None,0.48,0.0,0,1,1.0,0,55124.884719,684.8126106800016,,90,1,0,45,1,2021_Feb_10_1523,testDots,2020.2.5,59.698284868642006,
126,0,126,0,None,None,None,None,690.5543694999942,691.5689656999966,691.5689656999966,691.8693012000003,691.5689656999966,691.8693012000003,690.5543694999942,692.8866980999956,691.8693012000003,692.8702065999969,692.8702065999969,694.0224220999953,right,0.24315550000028452,694.0224220999953,None,0.06,180.0,0,0,1.0,1,55129.621929,689.5499421800021,,90,1,0,45,1,2021_Feb_10_1523,testDots,2020.2.5,59.698284868642006,
127,0,127,0,None,None,None,None,695.3083849999966,696.3237633999961,696.3237633999961,696.623874799996,696.3237633999961,696.623874799996,695.3083849999966,697.6429933999971,696.623874799996,697.6252075999946,697.6252075999946,698.7764901999981,right,0.056824999999662396,698.7764901999981,None,0.03,180.0,0,0,0.0,0,55134.376214,694.3045443799972,,90,1,0,45,1,2021_Feb_10_1523,testDots,2020.2.5,59.698284868642006,
128,0,128,0,None,None,None,None,699.8818629999951,700.8942822999961,700.8942822999961,701.1944521999976,700.8942822999961,701.1944521999976,699.8818629999951,702.2124026999954,701.1944521999976,702.1967026999992,702.1967026999992,703.3478688999967,right,0.22176539999782108,703.3478688999967,None,0.24,0.0,0,1,0.0,1,55138.948457,698.8758641799984,,90,1,0,45,1,2021_Feb_10_1523,testDots,2020.2.5,59.698284868642006,
129,0,129,0,None,None,None,None,704.6198767999958,705.6324610999945,705.6324610999945,705.932638899998,705.6324610999945,705.932638899998,704.6198767999958,706.9508245999968,705.932638899998,706.9341713999966,706.9341713999966,708.0855515000003,right,0.043941500000073574,708.0855515000003,None,0.12,0.0,0,1,0.0,1,55143.68758,703.6157942799953,,90,1,0,45,1,2021_Feb_10_1523,testDots,2020.2.5,59.698284868642006,
130,0,130,0,None,None,None,None,709.174068100001,710.1869134000008,710.1869134000008,710.4866346999988,710.1869134000008,710.4866346999988,709.174068100001,711.5051540999993,710.4866346999988,711.4896105000007,711.4896105000007,712.6393800000005,right,0.2418833999981871,712.6393800000005,None,0.03,180.0,0,0,0.0,0,55148.241886,708.1694216799995,,90,1,0,45,1,2021_Feb_10_1523,testDots,2020.2.5,59.698284868642006,
131,0,131,0,None,None,None,None,713.9278736999986,714.9421805999955,714.9421805999955,715.2429826000007,714.9421805999955,715.2429826000007,713.9278736999986,716.2596300000005,715.2429826000007,716.2438003999996,716.2438003999996,717.3941992999971,right,0.2313646999973571,717.3941992999971,None,0.24,0.0,0,1,1.0,0,55152.994614,712.9236180799969,,90,1,0,45,1,2021_Feb_10_1523,testDots,2020.2.5,59.698284868642006,
132,0,132,0,None,None,None,None,718.664549699999,719.663573699996,719.663573699996,719.9638063999955,719.663573699996,719.9638063999955,718.664549699999,720.9807195999965,719.9638063999955,720.9649406999961,720.9649406999961,722.1150868999976,right,0.15024730000004638,722.1150868999976,None,0.12,180.0,0,0,1.0,1,55157.732876,717.660825179996,,90,1,0,45,1,2021_Feb_10_1523,testDots,2020.2.5,59.698284868642006,
133,0,133,0,None,None,None,None,723.3055439999953,724.3186282999959,724.3186282999959,724.6194439999963,724.3186282999959,724.6194439999963,723.3055439999953,725.6357053999964,724.6194439999963,725.6204354000001,725.6204354000001,726.7706619999954,left,0.2229005999979563,726.7706619999954,None,0.48,180.0,180,1,0.0,0,55162.372177,722.3001514800023,,90,1,0,45,1,2021_Feb_10_1523,testDots,2020.2.5,59.698284868642006,
134,0,134,0,None,None,None,None,728.0429758999962,729.0556043999968,729.0556043999968,729.3562126999968,729.0556043999968,729.3562126999968,728.0429758999962,730.3750201000003,729.3562126999968,730.3583433999956,730.3583433999956,731.5089485999997,right,2.0443058000018937,731.5089485999997,None,0.06,0.0,0,1,1.0,0,55167.110896,727.03839898,,90,1,0,45,1,2021_Feb_10_1523,testDots,2020.2.5,59.698284868642006,
135,0,135,0,733.6006716999982,782.2097355000005,782.2097355000005,786.2056261999969,786.2056261999969,787.2148549999984,787.2148549999984,787.5146622999964,787.2148549999984,787.5146622999964,786.2056261999969,788.532684400001,787.5146622999964,788.5163584999973,788.5163584999973,789.6674770999962,right,0.20578519999980927,789.6674770999962,None,0.03,0.0,0,1,1.0,0,55173.666912,733.5948703799993,,90,1,0,45,1,2021_Feb_10_1523,testDots,2020.2.5,59.698284868642006,
136,0,136,0,None,None,None,None,790.9268721999979,791.9364510999949,791.9364510999949,792.2363278999983,791.9364510999949,792.2363278999983,790.9268721999979,793.2545395999987,792.2363278999983,793.236962899995,793.236962899995,794.4045888999972,left,0.08491389999835519,794.4045888999972,None,0.48,180.0,180,1,0.0,0,55229.992992,789.9172327800013,,90,1,0,45,1,2021_Feb_10_1523,testDots,2020.2.5,59.698284868642006,
137,0,137,0,None,None,None,None,795.5276077999952,796.5410056999972,796.5410056999972,796.841305599999,796.5410056999972,796.841305599999,795.5276077999952,797.8588077999957,796.841305599999,797.8421345999959,797.8421345999959,798.9925210000001,left,0.14493709999806015,798.9925210000001,None,0.06,180.0,180,1,1.0,1,55234.595124,794.5232915799977,,90,1,0,45,1,2021_Feb_10_1523,testDots,2020.2.5,59.698284868642006,
138,0,138,0,None,None,None,None,800.1818133999986,801.1960694000009,801.1960694000009,801.4958269999988,801.1960694000009,801.4958269999988,800.1818133999986,802.5122644000003,801.4958269999988,802.4969566,802.4969566,803.6475386999955,right,0.13770169999770587,803.6475386999955,None,0.12,0.0,0,1,1.0,0,55239.249626,799.1766065800009,,90,1,0,45,1,2021_Feb_10_1523,testDots,2020.2.5,59.698284868642006,
139,0,139,0,None,None,None,None,804.8360035000005,805.850314999996,805.850314999996,806.1505364999975,805.850314999996,806.1505364999975,804.8360035000005,807.1671590999977,806.1505364999975,807.1514648000011,807.1514648000011,808.3027552999993,right,0.21065709999675164,808.3027552999993,None,0.24,0.0,0,1,1.0,0,55243.903029,803.8305709800013,,90,1,0,45,1,2021_Feb_10_1523,testDots,2020.2.5,59.698284868642006,
140,0,140,0,None,None,None,None,809.5610487999948,810.5715339999952,810.5715339999952,810.8709283999997,810.5715339999952,810.8709283999997,809.5610487999948,811.8900953999982,810.8709283999997,811.8724073999983,811.8724073999983,813.0239988999965,right,0.28151689999504015,813.0239988999965,None,0.24,0.0,0,1,1.0,0,55248.62608,808.5538578800013,,90,1,0,45,1,2021_Feb_10_1523,testDots,2020.2.5,59.698284868642006,
141,0,141,0,None,None,None,None,814.3457530999949,815.3592669999998,815.3592669999998,815.6599585000004,815.3592669999998,815.6599585000004,814.3457530999949,816.6781339999943,815.6599585000004,816.6605348999947,816.6605348999947,817.8129298999993,right,0.21246899999823654,817.8129298999993,None,0.48,0.0,0,1,1.0,0,55253.412373,813.3410284800018,,90,1,0,45,1,2021_Feb_10_1523,testDots,2020.2.5,59.698284868642006,
142,0,142,0,None,None,None,None,819.0661934999953,820.0805111999944,820.0805111999944,820.3801079999976,820.0805111999944,820.3801079999976,819.0661934999953,821.3994147999983,820.3801079999976,821.3811281999951,821.3811281999951,822.5489582999944,right,0.0049329999965266325,822.5489582999944,None,0.12,0.0,0,1,0.0,1,55258.132729,818.0616258799971,,90,1,0,45,1,2021_Feb_10_1523,testDots,2020.2.5,59.698284868642006,
143,0,143,0,None,None,None,None,823.6071178999991,824.6190786000006,824.6190786000006,824.9356571999961,824.6190786000006,824.9356571999961,823.6071178999991,825.9538747999977,824.9356571999961,825.9357871999964,825.9357871999964,827.0876003000012,left,0.22578900000371505,827.0876003000012,None,0.06,180.0,180,1,0.0,0,55262.673604,822.600644279996,,90,1,0,45,1,2021_Feb_10_1523,testDots,2020.2.5,59.698284868642006,
144,0,144,0,None,None,None,None,828.3599585999982,829.3732990999997,829.3732990999997,829.6741065999959,829.3732990999997,829.6741065999959,828.3599585999982,830.6907174000007,829.6741065999959,830.6749905999968,830.6749905999968,831.8263836999977,left,0.12702839999838034,831.8263836999977,None,0.03,0.0,180,0,0.0,1,55267.426703,827.3548840799965,,90,1,0,45,1,2021_Feb_10_1523,testDots,2020.2.5,59.698284868642006,
145,0,145,0,None,None,None,None,832.9988269999958,834.0106040999963,834.0106040999963,834.3109244999941,834.0106040999963,834.3109244999941,832.9988269999958,835.328344900001,834.3109244999941,835.3130746999959,835.3130746999959,836.4809203999976,right,0.1685505000059493,836.4809203999976,None,0.24,0.0,0,1,0.0,1,55272.066163,831.9932927800007,,90,1,0,45,1,2021_Feb_10_1523,testDots,2020.2.5,59.698284868642006,
146,0,146,0,None,None,None,None,837.7058319999996,838.7167134999981,838.7167134999981,839.0165099000005,838.7167134999981,839.0165099000005,837.7058319999996,840.0343031000011,839.0165099000005,840.0172130999999,840.0172130999999,841.1690959999978,left,0.13621530000091298,841.1690959999978,None,0.03,180.0,180,1,0.0,0,55276.772035,836.6976137799982,,90,1,0,45,1,2021_Feb_10_1523,testDots,2020.2.5,59.698284868642006,
147,0,147,0,None,None,None,None,842.3553255000006,843.3707850999999,843.3707850999999,843.6707421999963,843.3707850999999,843.6707421999963,842.3553255000006,844.6885521000004,843.6707421999963,844.6715308999992,844.6715308999992,845.8235770999963,right,0.16193070000008447,845.8235770999963,None,0.06,180.0,0,0,1.0,1,55281.42202,841.3512442799954,,90,1,0,45,1,2021_Feb_10_1523,testDots,2020.2.5,59.698284868642006,
148,0,148,0,None,None,None,None,847.0303612999996,848.0423257000002,848.0423257000002,848.3433966999946,848.0423257000002,848.3433966999946,847.0303612999996,849.3595132999981,848.3433966999946,849.3436580999987,849.3436580999987,850.4948476999998,right,0.2506035000042175,850.4948476999998,None,0.12,0.0,0,1,1.0,0,55286.096503,846.0239255800013,,90,1,0,45,1,2021_Feb_10_1523,testDots,2020.2.5,59.698284868642006,
149,0,149,0,None,None,None,None,851.7836026000004,852.7967472999953,852.7967472999953,853.0970594999962,852.7967472999953,853.0970594999962,851.7836026000004,854.1151972999942,853.0970594999962,854.0970096999954,854.0970096999954,855.2500033999968,left,0.015643300001102034,855.2500033999968,None,0.48,0.0,180,0,1.0,0,55290.850145,850.7779771800022,,90,1,0,45,1,2021_Feb_10_1523,testDots,2020.2.5,59.698284868642006,
150,0,150,0,None,None,None,None,856.3035617999994,857.3178644,857.3178644,857.6186167999986,857.3178644,857.6186167999986,856.3035617999994,858.6361614999987,857.6186167999986,858.6186931999982,858.6186931999982,859.787382399998,left,0.19804950000252575,859.787382399998,None,0.03,0.0,180,0,0.0,1,55295.370378,855.2992996799992,,90,1,0,45,1,2021_Feb_10_1523,testDots,2020.2.5,59.698284868642006,
151,0,151,0,None,None,None,None,861.0303324999986,862.039289399996,862.039289399996,862.3403050999987,862.039289399996,862.3403050999987,861.0303324999986,863.3580674999976,862.3403050999987,863.3399933999972,863.3399933999972,864.4917677999983,right,0.2694880999988527,864.4917677999983,None,0.12,0.0,0,1,0.0,1,55300.096745,860.0210298799982,,90,1,0,45,1,2021_Feb_10_1523,testDots,2020.2.5,59.698284868642006,
152,0,152,0,None,None,None,None,865.813341999994,866.8281370999975,866.8281370999975,867.1275663999986,866.8281370999975,867.1275663999986,865.813341999994,868.1459972000011,867.1275663999986,868.1281305000011,868.1281305000011,869.2958972999986,left,0.28956489999836776,869.2958972999986,None,0.06,180.0,180,1,1.0,1,55304.880256,864.8080849799996,,90,1,0,45,1,2021_Feb_10_1523,testDots,2020.2.5,59.698284868642006,
153,0,153,0,None,None,None,None,870.6346956999987,871.6482806999993,871.6482806999993,871.9485691999944,871.6482806999993,871.9485691999944,870.6346956999987,872.9666721999965,871.9485691999944,872.9496274999983,872.9496274999983,874.1008803000004,left,0.21250429999781772,874.1008803000004,None,0.48,180.0,180,1,1.0,1,55309.701767,869.6297437799992,,90,1,0,45,1,2021_Feb_10_1523,testDots,2020.2.5,59.698284868642006,
154,0,154,0,None,None,None,None,875.3571131999997,876.3693323999978,876.3693323999978,876.6703567000004,876.3693323999978,876.6703567000004,875.3571131999997,877.6885900999987,876.6703567000004,877.671191399997,877.671191399997,878.8237872999962,right,0.19355010000435868,878.8237872999962,None,0.24,0.0,0,1,1.0,0,55314.423916,874.3522083800024,,90,1,0,45,1,2021_Feb_10_1523,testDots,2020.2.5,59.698284868642006,
155,0,155,0,None,None,None,None,880.063495800001,881.0749489000009,881.0749489000009,881.3758512999993,881.0749489000009,881.3758512999993,880.063495800001,882.3936936999962,881.3758512999993,882.3765447999976,882.3765447999976,883.5440490999972,right,0.2092424000002211,883.5440490999972,None,0.48,0.0,0,1,1.0,0,55319.128849,879.0564247799964,,90,1,0,45,1,2021_Feb_10_1523,testDots,2020.2.5,59.698284868642006,
156,0,156,0,None,None,None,None,884.7998372000002,885.8138151999956,885.8138151999956,886.1140496999942,885.8138151999956,886.1140496999942,884.7998372000002,887.1306017999959,886.1140496999942,887.1150061000008,887.1150061000008,888.2648009999975,right,0.11278239999955986,888.2648009999975,None,0.12,180.0,0,0,0.0,0,55323.866567,883.7951409799978,,90,1,0,45,1,2021_Feb_10_1523,testDots,2020.2.5,59.698284868642006,
157,0,157,0,None,None,None,None,889.4229190999977,890.4346886999992,890.4346886999992,890.7350545000008,890.4346886999992,890.7350545000008,889.4229190999977,891.7519652999981,890.7350545000008,891.736115599997,891.736115599997,892.8858275999955,right,0.1316718999951263,892.8858275999955,None,0.24,0.0,0,1,1.0,0,55328.48809,888.4164328800005,,90,1,0,45,1,2021_Feb_10_1523,testDots,2020.2.5,59.698284868642006,
158,0,158,0,None,None,None,None,894.0583431999985,895.0717405999967,895.0717405999967,895.3720121999941,895.0717405999967,895.3720121999941,894.0583431999985,896.3906805999941,895.3720121999941,896.3727020999941,896.3727020999941,897.5249245999948,right,0.25242180000350345,897.5249245999948,None,0.03,0.0,0,1,0.0,1,55333.125751,893.0542331799995,,90,1,0,45,1,2021_Feb_10_1523,testDots,2020.2.5,59.698284868642006,
159,0,159,0,None,None,None,None,898.8135621999972,899.8259226999944,899.8259226999944,900.126314299996,899.8259226999944,900.126314299996,898.8135621999972,901.1449766000005,900.126314299996,901.1277485999963,901.1277485999963,902.2787114999956,left,0.08276810000097612,902.2787114999956,None,0.06,180.0,180,1,0.0,0,55337.880881,897.8091821800015,,90,1,0,45,1,2021_Feb_10_1523,testDots,2020.2.5,59.698284868642006,
160,0,160,0,None,None,None,None,903.4005819999948,904.4138354999959,904.4138354999959,904.7147301000005,904.4138354999959,904.7147301000005,903.4005819999948,905.732474299999,904.7147301000005,905.7169493999972,905.7169493999972,906.867571499999,left,0.2140004000029876,906.867571499999,None,0.48,180.0,180,1,1.0,1,55342.4686,902.3971095799977,,90,1,0,45,1,2021_Feb_10_1523,testDots,2020.2.5,59.698284868642006,
161,0,161,0,None,None,None,None,908.1226380999942,909.1369798999949,909.1369798999949,909.4367427999969,909.1369798999949,909.4367427999969,908.1226380999942,910.4542856999979,909.4367427999969,910.4376508999994,910.4376508999994,911.5882347999941,right,0.2531152000010479,911.5882347999941,None,0.12,180.0,0,0,1.0,1,55347.190653,907.1186287799981,,90,1,0,45,1,2021_Feb_10_1523,testDots,2020.2.5,59.698284868642006,
162,0,162,0,None,None,None,None,912.8945345999964,913.9077850999965,913.9077850999965,914.2083990999963,913.9077850999965,914.2083990999963,912.8945345999964,915.2264033999963,914.2083990999963,915.2095005999945,915.2095005999945,916.376357000001,right,0.28909769999881973,916.376357000001,None,0.24,0.0,0,1,1.0,0,55351.961562,911.8886971799991,,90,1,0,45,1,2021_Feb_10_1523,testDots,2020.2.5,59.698284868642006,
163,0,163,0,None,None,None,None,917.7173554999972,918.7292713999996,918.7292713999996,919.0287208999944,918.7292713999996,919.0287208999944,917.7173554999972,920.0478587999969,919.0287208999944,920.0297315999996,920.0297315999996,921.1816755999971,right,0.0998736999972607,921.1816755999971,None,0.06,0.0,0,1,1.0,0,55356.7839,916.7117222799977,,90,1,0,45,1,2021_Feb_10_1523,testDots,2020.2.5,59.698284868642006,
164,0,164,0,None,None,None,None,922.3214325999943,923.3344374999942,923.3344374999942,923.6353743,923.3344374999942,923.6353743,922.3214325999943,924.6522415,923.6353743,924.6364002999981,924.6364002999981,925.7868337999971,right,0.22272260000318056,925.7868337999971,None,0.03,0.0,0,1,1.0,0,55361.387187,921.3156451799994,,90,1,0,45,1,2021_Feb_10_1523,testDots,2020.2.5,59.698284868642006,
165,0,165,0,None,None,None,None,927.0587898999947,928.072055699995,928.072055699995,928.3717524999956,928.072055699995,928.3717524999956,927.0587898999947,929.3901925999962,928.3717524999956,929.3739043999958,929.3739043999958,930.5237790999963,right,0.1415292999954545,930.5237790999963,None,0.12,180.0,0,0,1.0,1,55366.125651,926.0539579799995,,90,1,0,45,1,2021_Feb_10_1523,testDots,2020.2.5,59.698284868642006,
166,0,166,0,None,None,None,None,931.7122489999965,932.7276233999946,932.7276233999946,933.0279486,932.7276233999946,933.0279486,931.7122489999965,934.0438054999977,933.0279486,934.0281134999968,934.0281134999968,935.1786678999997,right,0.022748300005332567,935.1786678999997,None,0.48,0.0,0,1,0.0,1,55370.779391,930.7081726799995,,90,1,0,45,1,2021_Feb_10_1523,testDots,2020.2.5,59.698284868642006,
167,0,167,0,None,None,None,None,936.2498097999996,937.2642379999961,937.2642379999961,937.564180399997,937.2642379999961,937.564180399997,936.2498097999996,938.5828512000007,937.564180399997,938.5646430999986,938.5646430999986,939.7169577999957,right,0.27637749999848893,939.7169577999957,None,0.06,180.0,0,0,0.0,0,55375.316535,935.2454220799962,,90,1,0,45,1,2021_Feb_10_1523,testDots,2020.2.5,59.698284868642006,
168,0,168,0,None,None,None,None,941.0382667999947,942.0518845999977,942.0518845999977,942.3524389999948,942.0518845999977,942.3524389999948,941.0382667999947,943.3707329999961,942.3524389999948,943.3537170999989,943.3537170999989,944.505498999999,right,0.06383049999567447,944.505498999999,None,0.03,0.0,0,1,1.0,0,55380.106158,940.0337537799976,,90,1,0,45,1,2021_Feb_10_1523,testDots,2020.2.5,59.698284868642006,
169,0,169,0,None,None,None,None,945.6111683999989,946.6247566999955,946.6247566999955,946.9250895000005,946.6247566999955,946.9250895000005,945.6111683999989,947.9418402999945,946.9250895000005,947.9253013999987,947.9253013999987,949.0767462000003,right,0.20467500000086147,949.0767462000003,None,0.24,0.0,0,1,0.0,1,55384.677897,944.6058176799968,,90,1,0,45,1,2021_Feb_10_1523,testDots,2020.2.5,59.698284868642006,
170,0,170,0,None,None,None,None,950.3336907999983,951.3457247999977,951.3457247999977,951.6451262999981,951.3457247999977,951.6451262999981,950.3336907999983,952.6637218999967,951.6451262999981,952.6458716999987,952.6458716999987,953.7983367999987,left,0.11564350000116974,953.7983367999987,None,0.03,0.0,180,0,1.0,0,55389.40092,949.3265639799981,,90,1,0,45,1,2021_Feb_10_1523,testDots,2020.2.5,59.698284868642006,
171,0,171,0,None,None,None,None,954.9512479999976,955.9666771999982,955.9666771999982,956.266698200001,955.9666771999982,956.266698200001,954.9512479999976,957.2851049999954,956.266698200001,957.2681525999942,957.2681525999942,958.4185391999999,right,0.14276329999847803,958.4185391999999,None,0.12,0.0,0,1,0.0,1,55394.01925,953.9475555799988,,90,1,0,45,1,2021_Feb_10_1523,testDots,2020.2.5,59.698284868642006,
172,0,172,0,None,None,None,None,959.6074382000006,960.621192999999,960.621192999999,960.9215590999956,960.621192999999,960.9215590999956,959.6074382000006,961.9401290999958,960.9215590999956,961.9212217999957,961.9212217999957,963.0900467999963,right,0.23933609999949113,963.0900467999963,None,0.48,0.0,0,1,0.0,1,55398.674574,958.6018405799957,,90,1,0,45,1,2021_Feb_10_1523,testDots,2020.2.5,59.698284868642006,
173,0,173,0,None,None,None,None,964.3787940999973,965.3927053999942,965.3927053999942,965.6930107999942,965.3927053999942,965.6930107999942,964.3787940999973,966.7099623999966,965.6930107999942,966.693875799996,966.693875799996,967.8463888999977,left,0.21119789999647764,967.8463888999977,None,0.24,180.0,180,1,0.0,0,55403.44622,963.3742843799962,,90,1,0,45,1,2021_Feb_10_1523,testDots,2020.2.5,59.698284868642006,
174,0,174,0,None,None,None,None,969.1004729999986,970.1144290999946,970.1144290999946,970.4146811999963,970.1144290999946,970.4146811999963,969.1004729999986,971.4325946999961,970.4146811999963,971.416212199998,971.416212199998,972.5669871999999,right,0.28306680000241613,972.5669871999999,None,0.06,0.0,0,1,0.0,1,55408.167767,968.0953300799999,,90,1,0,45,1,2021_Feb_10_1523,testDots,2020.2.5,59.698284868642006,
175,0,175,0,None,None,None,None,973.8906057999993,974.9024225999965,974.9024225999965,975.2022216999976,974.9024225999965,975.2022216999976,973.8906057999993,976.2204695999972,975.2022216999976,976.2036071999974,976.2036071999974,977.3704339999967,left,0.0630888000014238,977.3704339999967,None,0.48,180.0,180,1,0.0,0,55412.957184,972.8838319800022,,90,1,0,45,1,2021_Feb_10_1523,testDots,2020.2.5,59.698284868642006,
176,0,176,0,None,None,None,None,978.4761534999998,979.4905647999985,979.4905647999985,979.7904166999942,979.4905647999985,979.7904166999942,978.4761534999998,980.8084964000009,979.7904166999942,980.7905925999949,980.7905925999949,981.9429448999945,left,0.0746835000027204,981.9429448999945,None,0.24,180.0,180,1,1.0,1,55417.543411,977.471521379998,,90,1,0,45,1,2021_Feb_10_1523,testDots,2020.2.5,59.698284868642006,
177,0,177,0,None,None,None,None,983.0631767999948,984.0779359000007,984.0779359000007,984.3779761999976,984.0779359000007,984.3779761999976,983.0631767999948,985.3965016000002,984.3779761999976,985.3789417000007,985.3789417000007,986.5308642999953,left,0.23053770000115037,986.5308642999953,None,0.12,180.0,180,1,0.0,0,55422.13028,982.0587087799984,,90,1,0,45,1,2021_Feb_10_1523,testDots,2020.2.5,59.698284868642006,
178,0,178,0,None,None,None,None,987.8025963999971,988.8165538999965,988.8165538999965,989.1164381999988,988.8165538999965,989.1164381999988,987.8025963999971,990.1332806999999,989.1164381999988,990.1173906999975,990.1173906999975,991.2689532000004,right,0.35669299999426585,991.2689532000004,None,0.06,180.0,0,0,0.0,0,55426.870286,986.7980467799978,,90,1,0,45,1,2021_Feb_10_1523,testDots,2020.2.5,59.698284868642006,
179,0,179,0,None,None,None,None,992.6746473999956,993.6870118999941,993.6870118999941,993.9885818999974,993.6870118999941,993.9885818999974,992.6746473999956,995.0050177999947,993.9885818999974,994.9898554999963,994.9898554999963,996.1401001999984,right,0.2053308999966248,996.1401001999984,None,0.03,0.0,0,1,1.0,0,55431.741767,991.6695919800011,,90,1,0,45,1,2021_Feb_10_1523,testDots,2020.2.5,59.698284868642006,
180,0,180,0,996.395191399999,1063.2077194000012,1063.2077194000012,1067.2034529000011,1067.2034529000011,1068.2116982999942,1068.2116982999942,1068.5129670999959,1068.2116982999942,1068.5129670999959,1067.2034529000011,1069.5300370999976,1068.5129670999959,1069.514807499996,1069.514807499996,1070.6637822999983,right,0.11385410000366392,1070.6637822999983,None,0.48,0.0,0,1,0.0,1,55436.462237,996.3910594800006,,90,1,0,45,1,2021_Feb_10_1523,testDots,2020.2.5,59.698284868642006,
181,0,181,0,None,None,None,None,1071.8201473000008,1072.8340245,1072.8340245,1073.134221799999,1072.8340245,1073.134221799999,1071.8201473000008,1074.1516944999967,1073.134221799999,1074.1351358999964,1074.1351358999964,1075.285511199996,right,0.12407500000699656,1075.285511199996,None,0.24,0.0,0,1,1.0,0,55510.888185,1070.815762080002,,90,1,0,45,1,2021_Feb_10_1523,testDots,2020.2.5,59.698284868642006,
182,0,182,0,None,None,None,None,1076.4572884999943,1077.4712752999985,1077.4712752999985,1077.771819099995,1077.4712752999985,1077.771819099995,1076.4572884999943,1078.789932599997,1077.771819099995,1078.7719488000002,1078.7719488000002,1079.9241504999954,left,0.22943629999645054,1079.9241504999954,None,0.12,0.0,180,0,1.0,0,55515.523595,1075.4523335800013,,90,1,0,45,1,2021_Feb_10_1523,testDots,2020.2.5,59.698284868642006,
183,0,183,0,None,None,None,None,1081.1967909999948,1082.2094579999975,1082.2094579999975,1082.5101779999968,1082.2094579999975,1082.5101779999968,1081.1967909999948,1083.5268295999995,1082.5101779999968,1083.511885,1083.511885,1084.6623573999968,right,0.09112789999926463,1084.6623573999968,None,0.03,180.0,0,0,0.0,0,55520.263948,1080.1914690800013,,90,1,0,45,1,2021_Feb_10_1523,testDots,2020.2.5,59.698284868642006,
184,0,184,0,None,None,None,None,1085.8000067999965,1086.8130431999962,1086.8130431999962,1087.112954600001,1086.8130431999962,1087.112954600001,1085.8000067999965,1088.1321183999971,1087.112954600001,1088.1154590000006,1088.1154590000006,1089.2661229000005,left,0.15922769999451702,1089.2661229000005,None,0.06,0.0,180,0,0.0,1,55524.867299,1084.7959583800011,,90,1,0,45,1,2021_Feb_10_1523,testDots,2020.2.5,59.698284868642006,
185,0,185,0,None,None,None,None,1090.4740610000008,1091.4851876999965,1091.4851876999965,1091.7858278999993,1091.4851876999965,1091.7858278999993,1090.4740610000008,1092.8038549999983,1091.7858278999993,1092.786916500001,1092.786916500001,1093.9384410999992,right,0.07101329999568406,1093.9384410999992,None,0.48,0.0,0,1,1.0,0,55529.540741,1089.466192179997,,90,1,0,45,1,2021_Feb_10_1523,testDots,2020.2.5,59.698284868642006,
186,0,186,0,None,None,None,None,1095.0602212999947,1096.0729786999946,1096.0729786999946,1096.3738580999998,1096.0729786999946,1096.3738580999998,1095.0602212999947,1097.391813299997,1096.3738580999998,1097.373749499995,1097.373749499995,1098.5419168999942,right,0.19539700000314042,1098.5419168999942,None,0.03,180.0,0,0,1.0,1,55534.126575,1094.0550417800014,,90,1,0,45,1,2021_Feb_10_1523,testDots,2020.2.5,59.698284868642006,
187,0,187,0,None,None,None,None,1099.780791899997,1100.7956980999952,1100.7956980999952,1101.0952625999998,1100.7956980999952,1101.0952625999998,1099.780791899997,1102.1135205999963,1101.0952625999998,1102.0951359999963,1102.0951359999963,1103.248416399998,right,0.12916599999880418,1103.248416399998,None,0.12,180.0,0,0,1.0,1,55538.847518,1098.775855179997,,90,1,0,45,1,2021_Feb_10_1523,testDots,2020.2.5,59.698284868642006,
188,0,188,0,None,None,None,None,1104.4191387999963,1105.4333081000004,1105.4333081000004,1105.733066199995,1105.4333081000004,1105.733066199995,1104.4191387999963,1106.749763599997,1105.733066199995,1106.7344595999966,1106.7344595999966,1107.8851570999977,left,0.1643511000002036,1107.8851570999977,None,0.06,180.0,180,1,0.0,0,55543.48664,1103.4144226799954,,90,1,0,45,1,2021_Feb_10_1523,testDots,2020.2.5,59.698284868642006,
189,0,189,0,None,None,None,None,1109.0894050999996,1110.1036555999963,1110.1036555999963,1110.403813799996,1110.1036555999963,1110.403813799996,1109.0894050999996,1111.4211825999955,1110.403813799996,1111.405365599996,1111.405365599996,1112.5564879999947,right,0.2211172000024817,1112.5564879999947,None,0.24,0.0,0,1,0.0,1,55548.157035,1108.0857927799998,,90,1,0,45,1,2021_Feb_10_1523,testDots,2020.2.5,59.698284868642006,
190,0,190,0,None,None,None,None,1113.8295657999988,1114.8412685000003,1114.8412685000003,1115.1420157999964,1114.8412685000003,1115.1420157999964,1113.8295657999988,1116.1606769999999,1115.1420157999964,1116.142623199994,1116.142623199994,1117.3107046000005,right,0.09967299999698298,1117.3107046000005,None,0.48,0.0,0,1,0.0,1,55552.89676,1112.8242509800011,,90,1,0,45,1,2021_Feb_10_1523,testDots,2020.2.5,59.698284868642006,
191,0,191,0,None,None,None,None,1118.449813399995,1119.4639234999995,1119.4639234999995,1119.7641953999992,1119.4639234999995,1119.7641953999992,1118.449813399995,1120.7820831999998,1119.7641953999992,1120.7638496,1120.7638496,1121.9161318999977,left,0.005232099996646866,1121.9161318999977,None,0.03,0.0,180,0,1.0,0,55557.516796,1117.4444086799967,,90,1,0,45,1,2021_Feb_10_1523,testDots,2020.2.5,59.698284868642006,
192,0,192,0,None,None,None,None,1122.9702386999998,1123.9849965999965,1123.9849965999965,1124.2841091999944,1123.9849965999965,1124.2841091999944,1122.9702386999998,1125.3036185999954,1124.2841091999944,1125.2852664999955,1125.2852664999955,1126.4530376999974,right,0.1962511000019731,1126.4530376999974,None,0.12,0.0,0,1,1.0,0,55562.037076,1121.9652197799996,,90,1,0,45,1,2021_Feb_10_1523,testDots,2020.2.5,59.698284868642006,
193,0,193,0,None,None,None,None,1127.6911722000004,1128.7061906999952,1128.7061906999952,1129.006050899996,1128.7061906999952,1129.006050899996,1127.6911722000004,1130.0242590999987,1129.006050899996,1130.0067205999949,1130.0067205999949,1131.158550299995,right,0.17874599999777274,1131.158550299995,None,0.06,180.0,0,0,0.0,0,55566.758487,1126.6870198799998,,90,1,0,45,1,2021_Feb_10_1523,testDots,2020.2.5,59.698284868642006,
194,0,194,0,None,None,None,None,1132.3803275999962,1133.393422699999,1133.393422699999,1133.692988499999,1133.393422699999,1133.692988499999,1132.3803275999962,1134.7123069999943,1133.692988499999,1134.6944230000008,1134.6944230000008,1135.8466721000004,left,0.2269321999992826,1135.8466721000004,None,0.24,180.0,180,1,0.0,0,55571.448011,1131.3759998799987,,90,1,0,45,1,2021_Feb_10_1523,testDots,2020.2.5,59.698284868642006,
195,0,195,0,None,None,None,None,1137.1226435999997,1138.1321552999943,1138.1321552999943,1138.4329953999986,1138.1321552999943,1138.4329953999986,1137.1226435999997,1139.4504419000004,1138.4329953999986,1139.4335140999974,1139.4335140999974,1140.599988199996,left,0.22537849999935133,1140.599988199996,None,0.03,180.0,180,1,0.0,0,55576.189408,1136.1139365800018,,90,1,0,45,1,2021_Feb_10_1523,testDots,2020.2.5,59.698284868642006,
196,0,196,0,None,None,None,None,1141.8726823999968,1142.886111199994,1142.886111199994,1143.188566799996,1142.886111199994,1143.188566799996,1141.8726823999968,1144.2052064999953,1143.188566799996,1144.187068799998,1144.187068799998,1145.3386059999975,right,0.04700389999925392,1145.3386059999975,None,0.24,180.0,0,0,0.0,0,55580.939564,1140.867724380002,,90,1,0,45,1,2021_Feb_10_1523,testDots,2020.2.5,59.698284868642006,
197,0,197,0,None,None,None,None,1146.4270839999954,1147.4417360999942,1147.4417360999942,1147.7410214999982,1147.4417360999942,1147.7410214999982,1146.4270839999954,1148.7599897999971,1147.7410214999982,1148.7418013999995,1148.7418013999995,1149.893075,left,0.06822259999898961,1149.893075,None,0.06,180.0,180,1,1.0,1,55585.493618,1145.4223123800011,,90,1,0,45,1,2021_Feb_10_1523,testDots,2020.2.5,59.698284868642006,
198,0,198,0,None,None,None,None,1150.9987118999998,1152.0130121999973,1152.0130121999973,1152.3135486999963,1152.0130121999973,1152.3135486999963,1150.9987118999998,1153.3298002999945,1152.3135486999963,1153.3138050999987,1153.3138050999987,1154.4657050999958,right,0.19162980000692187,1154.4657050999958,None,0.12,0.0,0,1,0.0,1,55590.066024,1149.9943832799954,,90,1,0,45,1,2021_Feb_10_1523,testDots,2020.2.5,59.698284868642006,
199,0,199,0,None,None,None,None,1155.7045231999946,1156.7170636999945,1156.7170636999945,1157.0162161999979,1156.7170636999945,1157.0162161999979,1155.7045231999946,1158.036542599999,1157.0162161999979,1158.0181344000011,1158.0181344000011,1159.1697561999972,right,0.04756970000016736,1159.1697561999972,None,0.48,0.0,0,1,1.0,0,55594.772166,1154.6996912799996,,90,1,0,45,1,2021_Feb_10_1523,testDots,2020.2.5,59.698284868642006,
200,0,200,0,None,None,None,None,1160.258240199997,1161.2711371999976,1161.2711371999976,1161.5716937999969,1161.2711371999976,1161.5716937999969,1160.258240199997,1162.5898373999953,1161.5716937999969,1162.5741905999967,1162.5741905999967,1163.7238392,right,0.24575850000110222,1163.7238392,None,0.03,180.0,0,0,1.0,1,55599.326253,1159.253805780002,,90,1,0,45,1,2021_Feb_10_1523,testDots,2020.2.5,59.698284868642006,
201,0,201,0,None,None,None,None,1165.0134491999997,1166.027060100001,1166.027060100001,1166.3275372999997,1166.027060100001,1166.3275372999997,1165.0134491999997,1167.3438005999997,1166.3275372999997,1167.3278662000012,1167.3278662000012,1168.4782845000009,right,0.1233628000045428,1168.4782845000009,None,0.48,0.0,0,1,0.0,1,55604.080482,1164.0085419799989,,90,1,0,45,1,2021_Feb_10_1523,testDots,2020.2.5,59.698284868642006,
202,0,202,0,None,None,None,None,1169.6504013999947,1170.6647348999977,1170.6647348999977,1170.9651453999977,1170.6647348999977,1170.9651453999977,1169.6504013999947,1171.9831965999983,1170.9651453999977,1171.9654956999948,1171.9654956999948,1173.132861399994,left,0.14051610000024084,1173.132861399994,None,0.24,180.0,180,1,0.0,0,55608.716687,1168.6456808799967,,90,1,0,45,1,2021_Feb_10_1523,testDots,2020.2.5,59.698284868642006,
203,0,203,0,None,None,None,None,1174.3224382999979,1175.3369869999951,1175.3369869999951,1175.6519658999969,1175.3369869999951,1175.6519658999969,1174.3224382999979,1176.671111399999,1175.6519658999969,1176.6533419999978,1176.6533419999978,1177.8050757999954,right,0.14821410000149626,1177.8050757999954,None,0.12,0.0,0,1,0.0,1,55613.389517,1173.3172620800005,,90,1,0,45,1,2021_Feb_10_1523,testDots,2020.2.5,59.698284868642006,
204,0,204,0,None,None,None,None,1178.994537999999,1180.0070714999965,1180.0070714999965,1180.3067654999977,1180.0070714999965,1180.3067654999977,1178.994537999999,1181.3249566999948,1180.3067654999977,1181.309234100001,1181.309234100001,1182.4598397000009,left,0.2456737999964389,1182.4598397000009,None,0.06,180.0,180,1,1.0,1,55618.060965,1177.9893285799963,,90,1,0,45,1,2021_Feb_10_1523,testDots,2020.2.5,59.698284868642006,
205,0,205,0,None,None,None,None,1183.747922800001,1184.7608020999978,1184.7608020999978,1185.061855699998,1184.7608020999978,1185.061855699998,1183.747922800001,1186.0794106999965,1185.061855699998,1186.0640445999961,1186.0640445999961,1187.214473299995,right,0.0347948999988148,1187.214473299995,None,0.24,180.0,0,0,0.0,0,55622.816099,1182.743948979999,,90,1,0,45,1,2021_Feb_10_1523,testDots,2020.2.5,59.698284868642006,
206,0,206,0,None,None,None,None,1188.302530199995,1189.3167981000006,1189.3167981000006,1189.6168542999949,1189.3167981000006,1189.6168542999949,1188.302530199995,1190.6348176999963,1189.6168542999949,1190.6182176000002,1190.6182176000002,1191.767994599999,right,0.20183199999883072,1191.767994599999,None,0.48,0.0,0,1,0.0,1,55627.3704,1187.2987457800018,,90,1,0,45,1,2021_Feb_10_1523,testDots,2020.2.5,59.698284868642006,
207,0,207,0,None,None,None,None,1193.007265799999,1194.021554699997,1194.021554699997,1194.321760699997,1194.021554699997,1194.321760699997,1193.007265799999,1195.339766899997,1194.321760699997,1195.3213641999973,1195.3213641999973,1196.4900038999986,left,4.0233184000026085,1196.4900038999986,None,0.12,0.0,180,0,1.0,0,55632.075117,1192.0026833799975,,90,1,0,45,1,2021_Feb_10_1523,testDots,2020.2.5,59.698284868642006,
208,0,208,0,None,None,None,None,1201.5663178999966,1202.5803698999953,1202.5803698999953,1202.880606300001,1202.5803698999953,1202.880606300001,1201.5663178999966,1203.8977394999965,1202.880606300001,1203.8837761999966,1203.8837761999966,1205.0328826999976,right,0.0966580000022077,1205.0328826999976,None,0.03,0.0,0,1,1.0,0,55640.633021,1200.5614231799964,,90,1,0,45,1,2021_Feb_10_1523,testDots,2020.2.5,59.698284868642006,
209,0,209,0,None,None,None,None,1206.1703134999989,1207.183812999996,1207.183812999996,1207.4848583999992,1207.183812999996,1207.4848583999992,1206.1703134999989,1208.5020807999972,1207.4848583999992,1208.4860779999944,1208.4860779999944,1209.6369800999964,right,0.12440530000458239,1209.6369800999964,None,0.06,0.0,0,1,0.0,1,55645.237867,1205.166335580002,,90,1,0,45,1,2021_Feb_10_1523,testDots,2020.2.5,59.698284868642006,
210,0,210,0,None,None,None,None,1210.8108188999977,1211.8231723999997,1211.8231723999997,1212.1225363999984,1211.8231723999997,1212.1225363999984,1210.8108188999977,1213.1409186999954,1212.1225363999984,1213.1232489999966,1213.1232489999966,1214.274585399995,right,0.14294499999959953,1214.274585399995,None,0.03,0.0,0,1,0.0,1,55649.876891,1209.804301180001,,90,1,0,45,1,2021_Feb_10_1523,testDots,2020.2.5,59.698284868642006,
211,0,211,0,None,None,None,None,1215.4674261999971,1216.4766949999976,1216.4766949999976,1216.7782650999943,1216.4766949999976,1216.7782650999943,1215.4674261999971,1217.7954994999964,1216.7782650999943,1217.7770036000002,1217.7770036000002,1218.9302750999996,right,0.23948070000187727,1218.9302750999996,None,0.12,0.0,0,1,1.0,0,55654.53273,1214.4592160799994,,90,1,0,45,1,2021_Feb_10_1523,testDots,2020.2.5,59.698284868642006,
212,0,212,0,None,None,None,None,1220.2157774999941,1221.2160618999987,1221.2160618999987,1221.515891199997,1221.2160618999987,1221.515891199997,1220.2157774999941,1222.5330085999958,1221.515891199997,1222.5170221000008,1222.5170221000008,1223.667321599998,right,0.10200359999726061,1223.667321599998,None,0.24,180.0,0,0,0.0,0,55659.283747,1219.2121076800004,,90,1,0,45,1,2021_Feb_10_1523,testDots,2020.2.5,59.698284868642006,
213,0,213,0,None,None,None,None,1224.8066323999956,1225.8198804999993,1225.8198804999993,1226.1197532000006,1225.8198804999993,1226.1197532000006,1224.8066323999956,1227.1381439999968,1226.1197532000006,1227.1205021999995,1227.1205021999995,1228.2745059999943,right,0.13510569999925792,1228.2745059999943,None,0.48,0.0,0,1,0.0,1,55663.873828,1223.8023079800014,,90,1,0,45,1,2021_Feb_10_1523,testDots,2020.2.5,59.698284868642006,
214,0,214,0,None,None,None,None,1229.4609895999965,1230.4743931999983,1230.4743931999983,1230.7744912999988,1230.4743931999983,1230.7744912999988,1229.4609895999965,1231.793774699996,1230.7744912999988,1231.7754582999987,1231.7754582999987,1232.926879300001,left,0.194700300002296,1232.926879300001,None,0.06,0.0,180,0,1.0,0,55668.528723,1228.456869480001,,90,1,0,45,1,2021_Feb_10_1523,testDots,2020.2.5,59.698284868642006,
215,0,215,0,None,None,None,None,1234.1655518999978,1235.1795750999954,1235.1795750999954,1235.4801469999948,1235.1795750999954,1235.4801469999948,1234.1655518999978,1236.4990793999968,1235.4801469999948,1236.4807883999965,1236.4807883999965,1237.6507388999962,right,0.07881780000025174,1237.6507388999962,None,0.03,180.0,0,0,0.0,0,55673.232929,1233.1608479800025,,90,1,0,45,1,2021_Feb_10_1523,testDots,2020.2.5,59.698284868642006,
216,0,216,0,None,None,None,None,1238.7719255999982,1239.7835807999945,1239.7835807999945,1240.086188399997,1239.7835807999945,1240.086188399997,1238.7719255999982,1241.1186157999982,1240.086188399997,1241.101982399996,1241.101982399996,1242.2690359999979,left,0.18854339999961667,1242.2690359999979,None,0.48,180.0,180,1,1.0,1,55677.838704,1237.76728628,,90,1,0,45,1,2021_Feb_10_1523,testDots,2020.2.5,59.698284868642006,
217,0,217,0,None,None,None,None,1243.5065450999973,1244.5220589999954,1244.5220589999954,1244.821738599996,1244.5220589999954,1244.821738599996,1243.5065450999973,1245.8405769999954,1244.821738599996,1245.8221358999945,1245.8221358999945,1246.9903647999963,right,0.2200130999990506,1246.9903647999963,None,0.12,0.0,0,1,1.0,0,55682.574218,1242.5027864799968,,90,1,0,45,1,2021_Feb_10_1523,testDots,2020.2.5,59.698284868642006,
218,0,218,0,None,None,None,None,1248.250452100001,1249.259872499999,1249.259872499999,1249.5612024000002,1249.259872499999,1249.5612024000002,1248.250452100001,1250.5776229999974,1249.5612024000002,1250.5630606999985,1250.5630606999985,1251.7143757999947,right,0.23214700000244193,1251.7143757999947,None,0.06,180.0,0,0,1.0,1,55687.316867,1247.2436170799965,,90,1,0,45,1,2021_Feb_10_1523,testDots,2020.2.5,59.698284868642006,
219,0,219,0,None,None,None,None,1252.9838213999974,1253.9977049000008,1253.9977049000008,1254.2977561000007,1253.9977049000008,1254.2977561000007,1252.9838213999974,1255.316521199995,1254.2977561000007,1255.301011699994,1255.301011699994,1256.4510765999948,right,0.12659089999942807,1256.4510765999948,None,0.24,0.0,0,1,0.0,1,55692.051423,1251.9800835800024,,90,1,0,45,1,2021_Feb_10_1523,testDots,2020.2.5,59.698284868642006,
220,0,220,0,None,None,None,None,1257.6227800999986,1258.6378549,1258.6378549,1258.9527183999962,1258.6378549,1258.9527183999962,1257.6227800999986,1259.9731974999959,1258.9527183999962,1259.9547209999946,1259.9547209999946,1261.104996999995,right,0.2085194000028423,1261.104996999995,None,0.06,180.0,0,0,0.0,0,55696.689227,1256.616639179997,,90,1,0,45,1,2021_Feb_10_1523,testDots,2020.2.5,59.698284868642006,
221,0,221,0,None,None,None,None,1262.3614339999986,1263.3759348999956,1263.3759348999956,1263.6929280999975,1263.3759348999956,1263.6929280999975,1262.3614339999986,1264.7088339999973,1263.6929280999975,1264.692172899995,1264.692172899995,1265.8594383999953,left,0.0702610000007553,1265.8594383999953,None,0.24,180.0,180,1,1.0,1,55701.428461,1261.357385979999,,90,1,0,45,1,2021_Feb_10_1523,testDots,2020.2.5,59.698284868642006,
222,0,222,0,None,None,None,None,1266.9827597999974,1267.9969464999958,1267.9969464999958,1268.3124446000002,1267.9969464999958,1268.3124446000002,1266.9827597999974,1269.3316429999977,1268.3124446000002,1269.3133129999987,1269.3133129999987,1270.4664803999985,right,0.18286769999394892,1270.4664803999985,None,0.48,0.0,0,1,1.0,0,55706.049483,1265.977307979997,,90,1,0,45,1,2021_Feb_10_1523,testDots,2020.2.5,59.698284868642006,
223,0,223,0,None,None,None,None,1271.6870268999992,1272.6998543000009,1272.6998543000009,1272.9999323999946,1272.6998543000009,1272.9999323999946,1271.6870268999992,1274.0194687999974,1272.9999323999946,1274.0009959999952,1274.0009959999952,1275.1526343000005,right,0.04108869999618037,1275.1526343000005,None,0.12,0.0,0,1,0.0,1,55710.755018,1270.6831752799962,,90,1,0,45,1,2021_Feb_10_1523,testDots,2020.2.5,59.698284868642006,
224,0,224,0,None,None,None,None,1276.2424802999958,1277.2544472000009,1277.2544472000009,1277.5542346000002,1277.2544472000009,1277.5542346000002,1276.2424802999958,1278.574258499997,1277.5542346000002,1278.5556081999966,1278.5556081999966,1279.7074100999962,left,0.11030490000121063,1279.7074100999962,None,0.03,180.0,180,1,0.0,0,55715.309461,1275.2376024800005,,90,1,0,45,1,2021_Feb_10_1523,testDots,2020.2.5,59.698284868642006,
225,0,225,0,1279.8624883000011,1328.6569391000012,1328.6569391000012,1332.6558179999993,1332.6558179999993,1333.6622339999958,1333.6622339999958,1333.9625478999951,1333.6622339999958,1333.9625478999951,1332.6558179999993,1334.9800886000012,1333.9625478999951,1334.9634309999965,1334.9634309999965,1336.1146640000006,right,0.0706858999983524,1336.1146640000006,None,0.03,0.0,0,1,0.0,1,55719.929554,1279.8575514800004,,90,1,0,45,1,2021_Feb_10_1523,testDots,2020.2.5,59.698284868642006,
226,0,226,0,None,None,None,None,1337.2370444999979,1338.2482002999968,1338.2482002999968,1338.5500059999977,1338.2482002999968,1338.5500059999977,1337.2370444999979,1339.5676692999987,1338.5500059999977,1339.5510616999964,1339.5510616999964,1340.7002761999975,right,0.14917300000524847,1340.7002761999975,None,0.24,0.0,0,1,0.0,1,55776.303558,1336.2316896800012,,90,1,0,45,1,2021_Feb_10_1523,testDots,2020.2.5,59.698284868642006,
227,0,227,0,None,None,None,None,1341.891173099997,1342.9043101999996,1342.9043101999996,1343.2045909000008,1342.9043101999996,1343.2045909000008,1341.891173099997,1344.2223308999965,1343.2045909000008,1344.2057235999964,1344.2057235999964,1345.357197499994,right,0.10821719999512425,1345.357197499994,None,0.12,0.0,0,1,1.0,0,55780.958529,1340.885854680001,,90,1,0,45,1,2021_Feb_10_1523,testDots,2020.2.5,59.698284868642006,
228,0,228,0,None,None,None,None,1346.511536099999,1347.5258939999985,1347.5258939999985,1347.8261780999965,1347.5258939999985,1347.8261780999965,1346.511536099999,1348.8439927,1347.8261780999965,1348.826946999994,1348.826946999994,1349.9783212999973,right,0.007005899999057874,1349.9783212999973,None,0.06,180.0,0,0,0.0,0,55785.578913,1345.5074782799975,,90,1,0,45,1,2021_Feb_10_1523,testDots,2020.2.5,59.698284868642006,
229,0,229,0,None,None,None,None,1351.0341845000003,1352.0451556999978,1352.0451556999978,1352.3470806999976,1352.0451556999978,1352.3470806999976,1351.0341845000003,1353.364781999997,1352.3470806999976,1353.3479599999991,1353.3479599999991,1354.4982158999992,left,0.20149289999972098,1354.4982158999992,None,0.48,180.0,180,1,0.0,0,55790.100965,1350.0282129800007,,90,1,0,45,1,2021_Feb_10_1523,testDots,2020.2.5,59.698284868642006,
230,0,230,0,None,None,None,None,1355.7393135999955,1356.7516398000007,1356.7516398000007,1357.0521460999953,1356.7516398000007,1357.0521460999953,1355.7393135999955,1358.0695569999953,1357.0521460999953,1358.0528266999972,1358.0528266999972,1359.2037750999953,left,0.11772110000310931,1359.2037750999953,None,0.24,180.0,180,1,1.0,1,55794.804691,1354.733016379997,,90,1,0,45,1,2021_Feb_10_1523,testDots,2020.2.5,59.698284868642006,
231,0,231,0,None,None,None,None,1360.374674300001,1361.3900527000005,1361.3900527000005,1361.7061781000011,1361.3900527000005,1361.7061781000011,1360.374674300001,1362.7238972999985,1361.7061781000011,1362.7056962999995,1362.7056962999995,1363.8586228999993,right,0.1027615999992122,1363.8586228999993,None,0.06,0.0,0,1,0.0,1,55799.44316,1359.3709638799965,,90,1,0,45,1,2021_Feb_10_1523,testDots,2020.2.5,59.698284868642006,
232,0,232,0,None,None,None,None,1365.0124953999984,1366.0259694999986,1366.0259694999986,1366.3261566,1366.0259694999986,1366.3261566,1365.0124953999984,1367.3451499000003,1366.3261566,1367.3291811999952,1367.3291811999952,1368.480490199996,right,0.009164600000076462,1368.480490199996,None,0.48,0.0,0,1,0.0,1,55804.080301,1364.0088806800022,,90,1,0,45,1,2021_Feb_10_1523,testDots,2020.2.5,59.698284868642006,
233,0,233,0,None,None,None,None,1369.5335520000008,1370.5483787999983,1370.5483787999983,1370.848817399994,1370.5483787999983,1370.848817399994,1369.5335520000008,1371.8664917999995,1370.848817399994,1371.8497136000005,1371.8497136000005,1373.001235799995,left,1.5361084999967716,1373.001235799995,None,0.03,0.0,180,0,0.0,1,55808.601029,1368.5298890800013,,90,1,0,45,1,2021_Feb_10_1523,testDots,2020.2.5,59.698284868642006,
234,0,234,0,None,None,None,None,1375.5919168999972,1376.6043331999972,1376.6043331999972,1376.9046110999989,1376.6043331999972,1376.9046110999989,1375.5919168999972,1377.922275799996,1376.9046110999989,1377.9062831999981,1377.9062831999981,1379.0567226999992,left,0.08092749999923399,1379.0567226999992,None,0.12,180.0,180,1,1.0,1,55814.658845,1374.58593708,,90,1,0,45,1,2021_Feb_10_1523,testDots,2020.2.5,59.698284868642006,
235,0,235,0,None,None,None,None,1380.1791851999951,1381.1921031999955,1381.1921031999955,1381.4926414000001,1381.1921031999955,1381.4926414000001,1380.1791851999951,1382.5102103999961,1381.4926414000001,1382.49381,1382.49381,1383.6450415,right,0.24458919999597128,1383.6450415,None,0.12,0.0,0,1,0.0,1,55819.246411,1379.1737133800025,,90,1,0,45,1,2021_Feb_10_1523,testDots,2020.2.5,59.698284868642006,
