trials.thisRepN,trials.thisTrialN,trials.thisN,trials.thisIndex,break_text.started,break_text.stopped,postbreak_text.started,postbreak_text.stopped,fixation1.started,fixation1.stopped,red_dot.started,red_dot.stopped,fixation2.started,fixation2.stopped,pursuit_or_saccade_dot.started,pursuit_or_saccade_dot.stopped,pursuit_saccade_isLeft,pupil_timestamp,psychopy_timestamp,participant,trials_per_condition,pursuit_or_saccade,practice_version,break_every_n_trials,pupil_on,date,expName,psychopyVersion,frameRate,
0,0,0,0,None,None,None,None,27.694967800052837,28.195429400075227,27.694967800052837,28.713857700116932,28.195429400075227,28.69608010002412,28.69608010002412,29.880336300004274,1.0,-502825.389246,26.662453080061823,aly_18,90,1,0,34,1,2021_Feb_25_1300,testDotsStepRampPilot,2020.2.5,60.01431942783838,
1,0,1,0,None,None,None,None,30.898813500069082,31.400193799985573,30.898813500069082,31.9335551999975,31.400193799985573,31.916613399982452,31.916613399982452,33.10146060003899,0.0,-502822.161598,29.89707422000356,aly_18,90,1,0,34,1,2021_Feb_25_1300,testDotsStepRampPilot,2020.2.5,60.01431942783838,
2,0,2,0,None,None,None,None,34.12001210008748,34.63572020013817,34.12001210008748,35.15360750001855,34.63572020013817,35.13569950009696,35.13569950009696,36.32218850008212,1.0,-502818.940563,33.11819852003828,aly_18,90,1,0,34,1,2021_Feb_25_1300,testDotsStepRampPilot,2020.2.5,60.01431942783838,
3,0,3,0,None,None,None,None,37.33947860007174,37.85609999997541,37.33947860007174,38.3745139001403,37.85609999997541,38.35648890002631,38.35648890002631,39.54154739994556,0.0,-502815.720727,36.33892642008141,aly_18,90,1,0,34,1,2021_Feb_25_1300,testDotsStepRampPilot,2020.2.5,60.01431942783838,
4,0,4,0,None,None,None,None,40.55897430004552,41.05842739995569,40.55897430004552,41.57691740011796,41.05842739995569,41.56056470004842,41.56056470004842,42.74443960003555,0.0,-502812.500681,39.558285319944844,aly_18,90,1,0,34,1,2021_Feb_25_1300,testDotsStepRampPilot,2020.2.5,60.01431942783838,
5,0,5,0,None,None,None,None,43.76325080008246,44.278280599974096,43.76325080008246,44.79682569997385,44.278280599974096,44.77884109993465,44.77884109993465,45.96329510002397,1.0,-502809.297865,42.761177520034835,aly_18,90,1,0,34,1,2021_Feb_25_1300,testDotsStepRampPilot,2020.2.5,60.01431942783838,
6,0,6,0,None,None,None,None,46.98088810010813,47.482512700138614,46.98088810010813,48.0165911000222,47.482512700138614,47.99853630014695,47.99853630014695,49.18460609996691,1.0,-502806.079548,45.98003302002326,aly_18,90,1,0,34,1,2021_Feb_25_1300,testDotsStepRampPilot,2020.2.5,60.01431942783838,
7,0,7,0,None,None,None,None,50.20302399992943,50.70261489995755,50.20302399992943,51.21844540000893,50.70261489995755,51.20322210015729,51.20322210015729,52.38545519998297,1.0,-502802.858065,49.2013440199662,aly_18,90,1,0,34,1,2021_Feb_25_1300,testDotsStepRampPilot,2020.2.5,60.01431942783838,
8,0,8,0,None,None,None,None,53.40192690002732,53.90546249994077,53.40192690002732,54.423179800156504,53.90546249994077,54.404995100107044,54.404995100107044,55.59054989996366,0.0,-502799.657116,52.40219311998226,aly_18,90,1,0,34,1,2021_Feb_25_1300,testDotsStepRampPilot,2020.2.5,60.01431942783838,
9,0,9,0,None,None,None,None,56.60779740009457,57.10907120001502,56.60779740009457,57.62547850003466,57.10907120001502,57.61139179999009,57.61139179999009,58.79153469996527,0.0,-502796.451818,55.60728781996295,aly_18,90,1,0,34,1,2021_Feb_25_1300,testDotsStepRampPilot,2020.2.5,60.01431942783838,
10,0,10,0,None,None,None,None,59.809962400002405,60.312580100027844,59.809962400002405,60.84604350011796,60.312580100027844,60.82965680002235,60.82965680002235,62.01344839995727,0.0,-502793.2508,58.808272619964555,aly_18,90,1,0,34,1,2021_Feb_25_1300,testDotsStepRampPilot,2020.2.5,60.01431942783838,
11,0,11,0,None,None,None,None,63.03267230000347,63.54751670011319,63.03267230000347,64.06623960006982,63.54751670011319,64.04754739999771,64.04754739999771,65.23342099995352,1.0,-502790.028778,62.030186319956556,aly_18,90,1,0,34,1,2021_Feb_25_1300,testDotsStepRampPilot,2020.2.5,60.01431942783838,
12,0,12,0,None,None,None,None,66.25157460011542,66.76747300010175,66.25157460011542,67.28572560008615,66.76747300010175,67.26761900004931,67.26761900004931,68.45260970015079,0.0,-502786.809162,65.25015891995281,aly_18,90,1,0,34,1,2021_Feb_25_1300,testDotsStepRampPilot,2020.2.5,60.01431942783838,
13,0,13,0,None,None,None,None,69.47017999994569,69.97143959999084,69.47017999994569,70.50540619995445,69.97143959999084,70.48743490013294,70.48743490013294,71.6731587999966,1.0,-502783.590368,68.46934762015007,aly_18,90,1,0,34,1,2021_Feb_25_1300,testDotsStepRampPilot,2020.2.5,60.01431942783838,
14,0,14,0,None,None,None,None,72.6899737000931,73.19170129997656,72.6899737000931,73.70790620008484,73.19170129997656,73.69228420010768,73.69228420010768,74.87672360008582,0.0,-502780.369134,71.68989671999589,aly_18,90,1,0,34,1,2021_Feb_25_1300,testDotsStepRampPilot,2020.2.5,60.01431942783838,
15,0,15,0,None,None,None,None,75.89494140003808,76.39399509993382,75.89494140003808,76.91182640008628,76.39399509993382,76.89416710007936,76.89416710007936,78.08003790001385,0.0,-502777.166195,74.89346152008511,aly_18,90,1,0,34,1,2021_Feb_25_1300,testDotsStepRampPilot,2020.2.5,60.01431942783838,
16,0,16,0,None,None,None,None,79.09687400003895,79.5969634000212,79.09687400003895,80.11554030003026,79.5969634000212,80.09734930004925,80.09734930004925,81.2828611000441,0.0,-502773.962666,78.09677582001314,aly_18,90,1,0,34,1,2021_Feb_25_1300,testDotsStepRampPilot,2020.2.5,60.01431942783838,
17,0,17,0,None,None,None,None,82.30128389992751,82.80200699996203,82.30128389992751,83.33545719995163,82.80200699996203,83.3165037999861,83.3165037999861,84.50284870015457,1.0,-502770.76003,81.29959902004339,aly_18,90,1,0,34,1,2021_Feb_25_1300,testDotsStepRampPilot,2020.2.5,60.01431942783838,
18,0,18,0,None,None,None,None,85.51929970015772,86.0213610001374,85.51929970015772,86.55515250004828,86.0213610001374,86.53633040003479,86.53633040003479,87.72241479996592,0.0,-502767.539379,84.51958662015386,aly_18,90,1,0,34,1,2021_Feb_25_1300,testDotsStepRampPilot,2020.2.5,60.01431942783838,
19,0,19,0,None,None,None,None,88.73945680004545,89.24074800009839,88.73945680004545,89.75714710005559,89.24074800009839,89.74166000005789,89.74166000005789,90.92397410003468,1.0,-502764.319918,87.7391527199652,aly_18,90,1,0,34,1,2021_Feb_25_1300,testDotsStepRampPilot,2020.2.5,60.01431942783838,
20,0,20,0,None,None,None,None,91.94319749996066,92.44344389997423,91.94319749996066,92.9619595000986,92.44344389997423,92.9444595000241,92.9444595000241,94.13024610001594,1.0,-502761.118117,90.94071202003397,aly_18,90,1,0,34,1,2021_Feb_25_1300,testDotsStepRampPilot,2020.2.5,60.01431942783838,
21,0,21,0,None,None,None,None,95.14698750013486,95.6460478999652,95.14698750013486,96.16324050002731,95.6460478999652,96.14802490011789,96.14802490011789,97.3312468000222,0.0,-502757.910516,94.14698402001522,aly_18,90,1,0,34,1,2021_Feb_25_1300,testDotsStepRampPilot,2020.2.5,60.01431942783838,
22,0,22,0,None,None,None,None,98.34775279997848,98.85079020005651,98.34775279997848,99.36676140013151,98.85079020005651,99.35066120000556,99.35066120000556,100.53580940002576,1.0,-502754.711159,97.34798472002149,aly_18,90,1,0,34,1,2021_Feb_25_1300,testDotsStepRampPilot,2020.2.5,60.01431942783838,
23,0,23,0,None,None,None,None,101.55353579996154,102.05283630010672,101.55353579996154,102.57110720011406,102.05283630010672,102.5529833000619,102.5529833000619,103.73843370005488,0.0,-502751.506611,100.55254732002504,aly_18,90,1,0,34,1,2021_Feb_25_1300,testDotsStepRampPilot,2020.2.5,60.01431942783838,
24,0,24,0,None,None,None,None,104.75705120014027,105.2575292000547,104.75705120014027,105.77294029993936,105.2575292000547,105.75794000015594,105.75794000015594,106.93995949998498,0.0,-502748.304065,103.75517162005417,aly_18,90,1,0,34,1,2021_Feb_25_1300,testDotsStepRampPilot,2020.2.5,60.01431942783838,
25,0,25,0,None,None,None,None,107.95967250014655,108.45955070015043,107.95967250014655,108.97846180014312,108.45955070015043,108.96042530005798,108.96042530005798,110.14509849995375,0.0,-502745.101548,106.95669741998427,aly_18,90,1,0,34,1,2021_Feb_25_1300,testDotsStepRampPilot,2020.2.5,60.01431942783838,
26,0,26,0,None,None,None,None,111.16045750002377,111.66398710012436,111.16045750002377,112.17991110007279,111.66398710012436,112.16450590011664,112.16450590011664,113.34719340014271,0.0,-502741.897414,110.16183641995303,aly_18,90,1,0,34,1,2021_Feb_25_1300,testDotsStepRampPilot,2020.2.5,60.01431942783838,
27,0,27,0,None,None,None,None,114.3671767001506,114.88332060002722,114.3671767001506,115.39986629993655,114.88332060002722,115.38416599994525,115.38416599994525,116.56963969999924,0.0,-502738.694854,113.363931320142,aly_18,90,1,0,34,1,2021_Feb_25_1300,testDotsStepRampPilot,2020.2.5,60.01431942783838,
28,0,28,0,None,None,None,None,117.58714470011182,118.1020070000086,117.58714470011182,118.62056479998864,118.1020070000086,118.60334080015309,118.60334080015309,119.78739590011537,1.0,-502735.472918,116.58637761999853,aly_18,90,1,0,34,1,2021_Feb_25_1300,testDotsStepRampPilot,2020.2.5,60.01431942783838,
29,0,29,0,None,None,None,None,120.80704810004681,121.32194490008987,120.80704810004681,121.84058340010233,121.32194490008987,121.82231070008129,121.82231070008129,123.00853330013342,0.0,-502732.254653,119.80413382011466,aly_18,90,1,0,34,1,2021_Feb_25_1300,testDotsStepRampPilot,2020.2.5,60.01431942783838,
30,0,30,0,None,None,None,None,124.02720799995586,124.54205000004731,124.02720799995586,125.0603984000627,124.54205000004731,125.04213960003108,125.04213960003108,126.22828599996865,1.0,-502729.033868,123.02527122013271,aly_18,90,1,0,34,1,2021_Feb_25_1300,testDotsStepRampPilot,2020.2.5,60.01431942783838,
31,0,31,0,None,None,None,None,127.24719140003435,127.76271710009314,127.24719140003435,128.28131350013427,127.76271710009314,128.26253559999168,128.26253559999168,129.44793210015632,1.0,-502725.813747,126.24502391996793,aly_18,90,1,0,34,1,2021_Feb_25_1300,testDotsStepRampPilot,2020.2.5,60.01431942783838,
32,0,32,0,None,None,None,None,130.46609220001847,130.9832123001106,130.46609220001847,131.5002286999952,130.9832123001106,131.48266239999793,131.48266239999793,132.66826570010744,0.0,-502722.594473,129.4646700201556,aly_18,90,1,0,34,1,2021_Feb_25_1300,testDotsStepRampPilot,2020.2.5,60.01431942783838,
33,0,33,0,None,None,None,None,133.68482510000467,134.18374330014922,133.68482510000467,134.70252540009096,134.18374330014922,134.68682459997945,134.68682459997945,135.87009000009857,0.0,-502719.374213,132.68500362010673,aly_18,90,1,0,34,1,2021_Feb_25_1300,testDotsStepRampPilot,2020.2.5,60.01431942783838,
34,0,34,0,135.88943960005417,159.09332869993523,159.09332869993523,163.0894288001582,163.0894288001582,163.59914020006545,163.0894288001582,164.13267650012858,163.59914020006545,164.11451929993927,164.11451929993927,165.30063050007448,0.0,-502716.171997,135.88682792009786,aly_18,90,1,0,34,1,2021_Feb_25_1300,testDotsStepRampPilot,2020.2.5,60.01431942783838,
35,0,35,0,None,None,None,None,166.31674999999814,166.81890200008638,166.31674999999814,167.33495990000665,166.81890200008638,167.31884460011497,167.31884460011497,168.50260820006952,1.0,-502686.741912,165.31736842007376,aly_18,90,1,0,34,1,2021_Feb_25_1300,testDotsStepRampPilot,2020.2.5,60.01431942783838,
36,0,36,0,None,None,None,None,169.52153860009275,170.0215253001079,169.52153860009275,170.5388130999636,170.0215253001079,170.5211871000938,170.5211871000938,171.70654430007562,0.0,-502683.539846,168.5193461200688,aly_18,90,1,0,34,1,2021_Feb_25_1300,testDotsStepRampPilot,2020.2.5,60.01431942783838,
37,0,37,0,None,None,None,None,172.72253679996356,173.22350860014558,172.72253679996356,173.74199100001715,173.22350860014558,173.72560769994743,173.72560769994743,174.90963939996436,0.0,-502680.336,171.7232822200749,aly_18,90,1,0,34,1,2021_Feb_25_1300,testDotsStepRampPilot,2020.2.5,60.01431942783838,
38,0,38,0,None,None,None,None,175.9287248000037,176.44285829993896,175.9287248000037,176.9624284999445,176.44285829993896,176.9439227001276,176.9439227001276,178.12954879994504,0.0,-502677.132509,174.92637731996365,aly_18,90,1,0,34,1,2021_Feb_25_1300,testDotsStepRampPilot,2020.2.5,60.01431942783838,
39,0,39,0,None,None,None,None,179.14888709993102,179.6633703999687,179.14888709993102,180.18231810000725,179.6633703999687,180.1638162001036,180.1638162001036,181.34964310005307,0.0,-502673.912488,178.14628671994433,aly_18,90,1,0,34,1,2021_Feb_25_1300,testDotsStepRampPilot,2020.2.5,60.01431942783838,
40,0,40,0,None,None,None,None,182.36890899995342,182.88281790004112,182.36890899995342,183.40176429995336,182.88281790004112,183.3830556999892,183.3830556999892,184.56951520009898,0.0,-502670.692544,181.36638102005236,aly_18,90,1,0,34,1,2021_Feb_25_1300,testDotsStepRampPilot,2020.2.5,60.01431942783838,
41,0,41,0,None,None,None,None,185.5878614000976,186.0881177999545,185.5878614000976,186.6041612001136,186.0881177999545,186.5887164999731,186.5887164999731,187.77177120000124,1.0,-502667.472712,184.58625312009826,aly_18,90,1,0,34,1,2021_Feb_25_1300,testDotsStepRampPilot,2020.2.5,60.01431942783838,
42,0,42,0,None,None,None,None,188.79073400003836,189.29110209993087,188.79073400003836,189.80841040005907,189.29110209993087,189.79070729995146,189.79070729995146,190.97737430012785,1.0,-502664.270771,187.78850912000053,aly_18,90,1,0,34,1,2021_Feb_25_1300,testDotsStepRampPilot,2020.2.5,60.01431942783838,
43,0,43,0,None,None,None,None,191.9930871000979,192.49288680008613,191.9930871000979,193.01159700006247,192.49288680008613,192.99332270002924,192.99332270002924,194.1782658000011,1.0,-502661.065621,190.99411222012714,aly_18,90,1,0,34,1,2021_Feb_25_1300,testDotsStepRampPilot,2020.2.5,60.01431942783838,
44,0,44,0,None,None,None,None,195.194381600013,195.697651399998,195.194381600013,196.2314315000549,195.697651399998,196.21235019993037,196.21235019993037,197.39941429998726,0.0,-502657.864368,194.1950037200004,aly_18,90,1,0,34,1,2021_Feb_25_1300,testDotsStepRampPilot,2020.2.5,60.01431942783838,
45,0,45,0,None,None,None,None,198.41811770014465,198.93311959994026,198.41811770014465,199.4513956999872,198.93311959994026,199.43315970012918,199.43315970012918,200.6186224000994,1.0,-502654.643102,197.41615221998654,aly_18,90,1,0,34,1,2021_Feb_25_1300,testDotsStepRampPilot,2020.2.5,60.01431942783838,
46,0,46,0,None,None,None,None,201.6351302000694,202.13733569998294,201.6351302000694,202.65422220015898,202.13733569998294,202.63790949992836,202.63790949992836,203.82125900010578,1.0,-502651.423697,200.6353603200987,aly_18,90,1,0,34,1,2021_Feb_25_1300,testDotsStepRampPilot,2020.2.5,60.01431942783838,
47,0,47,0,None,None,None,None,204.83773320005275,205.34038850013167,204.83773320005275,205.8577546000015,205.34038850013167,205.84060070011765,205.84060070011765,207.0263509999495,1.0,-502648.221529,203.83799692010507,aly_18,90,1,0,34,1,2021_Feb_25_1300,testDotsStepRampPilot,2020.2.5,60.01431942783838,
48,0,48,0,None,None,None,None,208.04286459996365,208.54220160003752,208.04286459996365,209.0599454001058,208.54220160003752,209.04415070009418,209.04415070009418,210.22689220006578,0.0,-502645.015955,207.0430889199488,aly_18,90,1,0,34,1,2021_Feb_25_1300,testDotsStepRampPilot,2020.2.5,60.01431942783838,
49,0,49,0,None,None,None,None,211.24656500015408,211.7468173999805,211.24656500015408,212.2624832999427,211.7468173999805,212.247150399955,212.247150399955,213.43170660012402,0.0,-502641.815249,210.24363012006506,aly_18,90,1,0,34,1,2021_Feb_25_1300,testDotsStepRampPilot,2020.2.5,60.01431942783838,
50,0,50,0,None,None,None,None,214.448383100098,214.9489800001029,214.448383100098,215.46723380009644,214.9489800001029,215.44893270009197,215.44893270009197,216.63500869995914,0.0,-502638.610326,213.4484445201233,aly_18,90,1,0,34,1,2021_Feb_25_1300,testDotsStepRampPilot,2020.2.5,60.01431942783838,
51,0,51,0,None,None,None,None,217.65318519994617,218.1533254000824,217.65318519994617,218.6686205000151,218.1533254000824,218.65376150002703,218.65376150002703,219.8361070000101,1.0,-502635.407912,216.65174661995843,aly_18,90,1,0,34,1,2021_Feb_25_1300,testDotsStepRampPilot,2020.2.5,60.01431942783838,
52,0,52,0,None,None,None,None,220.85513980011456,221.3558994999621,220.85513980011456,221.873715700116,221.3558994999621,221.85621939995326,221.85621939995326,223.04194240015931,1.0,-502632.205758,219.85284492000937,aly_18,90,1,0,34,1,2021_Feb_25_1300,testDotsStepRampPilot,2020.2.5,60.01431942783838,
53,0,53,0,None,None,None,None,224.05859320005402,224.55961999995634,224.05859320005402,225.07663030014373,224.55961999995634,225.06035599997267,225.06035599997267,226.2445841000881,0.0,-502629.000272,223.0586803201586,aly_18,90,1,0,34,1,2021_Feb_25_1300,testDotsStepRampPilot,2020.2.5,60.01431942783838,
54,0,54,0,None,None,None,None,227.26201459998265,227.76255180011503,227.26201459998265,228.28018769994378,227.76255180011503,228.26284390012734,228.26284390012734,229.44853230006993,1.0,-502625.797692,226.2613220200874,aly_18,90,1,0,34,1,2021_Feb_25_1300,testDotsStepRampPilot,2020.2.5,60.01431942783838,
55,0,55,0,None,None,None,None,230.468301899964,230.98258140007965,230.468301899964,231.49874690012075,230.98258140007965,231.4828242000658,231.4828242000658,232.66822810005397,0.0,-502622.590582,229.46527022006921,aly_18,90,1,0,34,1,2021_Feb_25_1300,testDotsStepRampPilot,2020.2.5,60.01431942783838,
56,0,56,0,None,None,None,None,233.6860170001164,234.1857034000568,233.6860170001164,234.7029263000004,234.1857034000568,234.68526439997368,234.68526439997368,235.87072260002606,0.0,-502619.374138,232.68496602005325,aly_18,90,1,0,34,1,2021_Feb_25_1300,testDotsStepRampPilot,2020.2.5,60.01431942783838,
57,0,57,0,None,None,None,None,236.88735650014132,237.39023440005258,236.88735650014132,237.92259979993105,237.39023440005258,237.90677060000598,237.90677060000598,239.09126679995097,1.0,-502616.171496,235.88746052002534,aly_18,90,1,0,34,1,2021_Feb_25_1300,testDotsStepRampPilot,2020.2.5,60.01431942783838,
58,0,58,0,None,None,None,None,240.10955790011212,240.62559220008552,240.10955790011212,241.1428529000841,240.62559220008552,241.1252868999727,241.1252868999727,242.31114210002124,1.0,-502612.950894,239.10800471995026,aly_18,90,1,0,34,1,2021_Feb_25_1300,testDotsStepRampPilot,2020.2.5,60.01431942783838,
59,0,59,0,None,None,None,None,243.32788869994693,243.82897000014782,243.32788869994693,244.34626960009336,243.82897000014782,244.32957760011777,244.32957760011777,245.51327290013433,1.0,-502609.731885,242.32788002002053,aly_18,90,1,0,34,1,2021_Feb_25_1300,testDotsStepRampPilot,2020.2.5,60.01431942783838,
60,0,60,0,None,None,None,None,246.5324743001256,247.04737380007282,246.5324743001256,247.56575229996815,247.04737380007282,247.54931000014767,247.54931000014767,248.73354750010185,0.0,-502606.528916,245.5300108201336,aly_18,90,1,0,34,1,2021_Feb_25_1300,testDotsStepRampPilot,2020.2.5,60.01431942783838,
61,0,61,0,None,None,None,None,249.75166069995612,250.25221380009316,249.75166069995612,250.78591450001113,250.25221380009316,250.76785490009934,250.76785490009934,251.9526961001102,1.0,-502603.30893,248.75028542010114,aly_18,90,1,0,34,1,2021_Feb_25_1300,testDotsStepRampPilot,2020.2.5,60.01431942783838,
62,0,62,0,None,None,None,None,252.97021679999307,253.47207990009338,252.97021679999307,253.9877784999553,253.47207990009338,253.97238090005703,253.97238090005703,255.15556009998545,0.0,-502600.089433,251.96943402010947,aly_18,90,1,0,34,1,2021_Feb_25_1300,testDotsStepRampPilot,2020.2.5,60.01431942783838,
63,0,63,0,None,None,None,None,256.1756448999513,256.67431470006704,256.1756448999513,257.19242090010084,256.67431470006704,257.17459590011276,257.17459590011276,258.3602225999348,1.0,-502596.885866,255.17229801998474,aly_18,90,1,0,34,1,2021_Feb_25_1300,testDotsStepRampPilot,2020.2.5,60.01431942783838,
64,0,64,0,None,None,None,None,259.3791974999476,259.895221499959,259.3791974999476,260.41233850014396,259.895221499959,260.39538390003145,260.39538390003145,261.58032070007175,0.0,-502593.682266,258.3769605199341,aly_18,90,1,0,34,1,2021_Feb_25_1300,testDotsStepRampPilot,2020.2.5,60.01431942783838,
65,0,65,0,None,None,None,None,262.5949484000448,263.0985298000742,262.5949484000448,263.6320504001342,263.0985298000742,263.6153285999317,263.6153285999317,264.800081100082,0.0,-502590.462359,261.59705862007104,aly_18,90,1,0,34,1,2021_Feb_25_1300,testDotsStepRampPilot,2020.2.5,60.01431942783838,
66,0,66,0,None,None,None,None,265.8177430999931,266.3157953999471,265.8177430999931,266.8357742000371,266.3157953999471,266.81783900014125,266.81783900014125,268.00311210006475,0.0,-502587.242432,264.8168190200813,aly_18,90,1,0,34,1,2021_Feb_25_1300,testDotsStepRampPilot,2020.2.5,60.01431942783838,
67,0,67,0,None,None,None,None,269.02186740003526,269.53594830003567,269.02186740003526,270.0552410001401,269.53594830003567,270.03705799998716,270.03705799998716,271.22312270011753,1.0,-502584.039814,268.01985002006404,aly_18,90,1,0,34,1,2021_Feb_25_1300,testDotsStepRampPilot,2020.2.5,60.01431942783838,
68,0,68,0,271.2416805999819,297.047699799994,297.047699799994,301.0459527000785,301.0459527000785,301.55333920009434,301.0459527000785,302.0691857000347,301.55333920009434,302.05441340012476,302.05441340012476,303.23839660012163,1.0,-502580.819024,271.2398606201168,aly_18,90,1,0,34,1,2021_Feb_25_1300,testDotsStepRampPilot,2020.2.5,60.01431942783838,
69,0,69,0,None,None,None,None,304.2569916001521,304.75542820012197,304.2569916001521,305.27356570004486,304.75542820012197,305.2560026999563,305.2560026999563,306.44115209998563,1.0,-502548.80223,303.2551345201209,aly_18,90,1,0,34,1,2021_Feb_25_1300,testDotsStepRampPilot,2020.2.5,60.01431942783838,
70,0,70,0,None,None,None,None,307.4595844000578,307.9751458000392,307.4595844000578,308.493615699932,307.9751458000392,308.4758397000842,308.4758397000842,309.6603775001131,1.0,-502545.601006,306.4578900199849,aly_18,90,1,0,34,1,2021_Feb_25_1300,testDotsStepRampPilot,2020.2.5,60.01431942783838,
71,0,71,0,None,None,None,None,310.67935420013964,311.1798563001212,310.67935420013964,311.6955196999479,311.1798563001212,311.6803979999386,311.6803979999386,312.86357889999636,1.0,-502542.38169,309.6771154201124,aly_18,90,1,0,34,1,2021_Feb_25_1300,testDotsStepRampPilot,2020.2.5,60.01431942783838,
72,0,72,0,None,None,None,None,313.8820867999457,314.3834993999917,313.8820867999457,314.90022750012577,314.3834993999917,314.8825920999516,314.8825920999516,316.06813409994356,1.0,-502539.178832,312.88031681999564,aly_18,90,1,0,34,1,2021_Feb_25_1300,testDotsStepRampPilot,2020.2.5,60.01431942783838,
73,0,73,0,None,None,None,None,317.08320780005306,317.5865052000154,317.08320780005306,318.1026794000063,317.5865052000154,318.086471100105,318.086471100105,319.26924500009045,0.0,-502535.974769,316.08487201994285,aly_18,90,1,0,34,1,2021_Feb_25_1300,testDotsStepRampPilot,2020.2.5,60.01431942783838,
74,0,74,0,None,None,None,None,320.28733720001765,320.79105819994584,320.28733720001765,321.32253740006126,320.79105819994584,321.3067962001078,321.3067962001078,322.4911307999864,0.0,-502532.772723,319.28598292008974,aly_18,90,1,0,34,1,2021_Feb_25_1300,testDotsStepRampPilot,2020.2.5,60.01431942783838,
75,0,75,0,None,None,None,None,323.51002599997446,324.02480649994686,323.51002599997446,324.54332099994645,324.02480649994686,324.52442359994166,324.52442359994166,325.71090870001353,1.0,-502529.550916,322.5078687199857,aly_18,90,1,0,34,1,2021_Feb_25_1300,testDotsStepRampPilot,2020.2.5,60.01431942783838,
76,0,76,0,None,None,None,None,326.72868699999526,327.24536200007424,326.72868699999526,327.7631922001019,327.24536200007424,327.744279100094,327.744279100094,328.9305410000961,0.0,-502526.331733,325.7276466200128,aly_18,90,1,0,34,1,2021_Feb_25_1300,testDotsStepRampPilot,2020.2.5,60.01431942783838,
77,0,77,0,None,None,None,None,329.9488278001081,330.4652238001581,329.9488278001081,330.9843898001127,330.4652238001581,330.96459610015154,330.96459610015154,332.1511526000686,1.0,-502523.111699,328.9472789200954,aly_18,90,1,0,34,1,2021_Feb_25_1300,testDotsStepRampPilot,2020.2.5,60.01431942783838,
78,0,78,0,None,None,None,None,333.16922300006263,333.66933679999784,333.16922300006263,334.1847984001506,333.66933679999784,334.1694281999953,334.1694281999953,335.35263189999387,0.0,-502519.891766,332.1678905200679,aly_18,90,1,0,34,1,2021_Feb_25_1300,testDotsStepRampPilot,2020.2.5,60.01431942783838,
79,0,79,0,None,None,None,None,336.37206279998645,336.88716079993173,336.37206279998645,337.4049043999985,336.88716079993173,337.38918950012885,337.38918950012885,338.5733853999991,0.0,-502516.689531,335.36936981999315,aly_18,90,1,0,34,1,2021_Feb_25_1300,testDotsStepRampPilot,2020.2.5,60.01431942783838,
80,0,80,0,None,None,None,None,339.592523700092,340.1066628000699,339.592523700092,340.62432359997183,340.1066628000699,340.60756399994716,340.60756399994716,341.7933424001094,0.0,-502513.468744,338.5901233199984,aly_18,90,1,0,34,1,2021_Feb_25_1300,testDotsStepRampPilot,2020.2.5,60.01431942783838,
81,0,81,0,None,None,None,None,342.8126403000206,343.32641440001316,342.8126403000206,343.8454718000721,343.32641440001316,343.8276257000398,343.8276257000398,345.01257989997976,1.0,-502510.249203,341.8100803201087,aly_18,90,1,0,34,1,2021_Feb_25_1300,testDotsStepRampPilot,2020.2.5,60.01431942783838,
82,0,82,0,None,None,None,None,346.03183969995007,346.5469158999622,346.03183969995007,347.06579550006427,346.5469158999622,347.0466444999911,347.0466444999911,348.2339876999613,1.0,-502507.029591,345.02931781997904,aly_18,90,1,0,34,1,2021_Feb_25_1300,testDotsStepRampPilot,2020.2.5,60.01431942783838,
83,0,83,0,None,None,None,None,349.2524878999684,349.7515094000846,349.2524878999684,350.26783520006575,349.7515094000846,350.2520568999462,350.2520568999462,351.43535890011117,1.0,-502503.809028,348.2507256199606,aly_18,90,1,0,34,1,2021_Feb_25_1300,testDotsStepRampPilot,2020.2.5,60.01431942783838,
84,0,84,0,None,None,None,None,352.4543117999565,352.9548790000845,352.4543117999565,353.47184889996424,352.9548790000845,353.454947500024,353.454947500024,354.6398039001506,1.0,-502500.607107,351.45209682011046,aly_18,90,1,0,34,1,2021_Feb_25_1300,testDotsStepRampPilot,2020.2.5,60.01431942783838,
85,0,85,0,None,None,None,None,355.6567176999524,356.1583243000787,355.6567176999524,356.67475629993714,356.1583243000787,356.65890130004846,356.65890130004846,357.8421108000912,0.0,-502497.402945,354.65654182014987,aly_18,90,1,0,34,1,2021_Feb_25_1300,testDotsStepRampPilot,2020.2.5,60.01431942783838,
86,0,86,0,None,None,None,None,358.8614209999796,359.3757768999785,358.8614209999796,359.8949400000274,359.3757768999785,359.8770878999494,359.8770878999494,361.0632309000939,0.0,-502494.199962,357.85884872009046,aly_18,90,1,0,34,1,2021_Feb_25_1300,testDotsStepRampPilot,2020.2.5,60.01431942783838,
87,0,87,0,None,None,None,None,362.08182390010916,362.5969644000288,362.08182390010916,363.1148359000217,362.5969644000288,363.09669749997556,363.09669749997556,364.28260789997876,1.0,-502490.978842,361.0799688200932,aly_18,90,1,0,34,1,2021_Feb_25_1300,testDotsStepRampPilot,2020.2.5,60.01431942783838,
88,0,88,0,None,None,None,None,365.3017617999576,365.81550170015544,365.3017617999576,366.33493950008415,365.81550170015544,366.31742780003697,366.31742780003697,367.5011716000736,1.0,-502487.75956,364.29934581997804,aly_18,90,1,0,34,1,2021_Feb_25_1300,testDotsStepRampPilot,2020.2.5,60.01431942783838,
89,0,89,0,None,None,None,None,368.51830560015514,369.02074870001525,368.51830560015514,369.5374473000411,369.02074870001525,369.5215350999497,369.5215350999497,370.7037837000098,1.0,-502484.541895,367.51790952007286,aly_18,90,1,0,34,1,2021_Feb_25_1300,testDotsStepRampPilot,2020.2.5,60.01431942783838,
90,0,90,0,None,None,None,None,371.7194716001395,372.22342579998076,371.7194716001395,372.741127199959,372.22342579998076,372.7242741000373,372.7242741000373,373.9091895001475,0.0,-502481.339213,370.7205216200091,aly_18,90,1,0,34,1,2021_Feb_25_1300,testDotsStepRampPilot,2020.2.5,60.01431942783838,
91,0,91,0,None,None,None,None,374.9257976000663,375.42744649993256,374.9257976000663,375.94308040011674,375.42744649993256,375.92636299994774,375.92636299994774,377.11128560011275,0.0,-502478.133889,373.92592742014676,aly_18,90,1,0,34,1,2021_Feb_25_1300,testDotsStepRampPilot,2020.2.5,60.01431942783838,
92,0,92,0,None,None,None,None,378.12849269993603,378.6304460000247,378.12849269993603,379.1642283999827,378.6304460000247,379.14726120000705,379.14726120000705,380.3314916000236,1.0,-502474.931735,377.12802352011204,aly_18,90,1,0,34,1,2021_Feb_25_1300,testDotsStepRampPilot,2020.2.5,60.01431942783838,
93,0,93,0,None,None,None,None,381.3486889000051,381.85033400007524,381.3486889000051,382.3652437001001,381.85033400007524,382.35079480009153,382.35079480009153,383.5356511999853,0.0,-502471.711306,380.34822952002287,aly_18,90,1,0,34,1,2021_Feb_25_1300,testDotsStepRampPilot,2020.2.5,60.01431942783838,
94,0,94,0,None,None,None,None,384.55442790011875,385.0526372001041,384.55442790011875,385.57117990008555,385.0526372001041,385.5527654001489,385.5527654001489,386.74025580007583,1.0,-502468.506886,383.5523891199846,aly_18,90,1,0,34,1,2021_Feb_25_1300,testDotsStepRampPilot,2020.2.5,60.01431942783838,
95,0,95,0,None,None,None,None,387.75746700004674,388.2568211001344,387.75746700004674,388.7726237999741,388.2568211001344,388.7570249000564,388.7570249000564,389.940851500025,1.0,-502465.302371,386.7569937200751,aly_18,90,1,0,34,1,2021_Feb_25_1300,testDotsStepRampPilot,2020.2.5,60.01431942783838,
96,0,96,0,None,None,None,None,390.9580336001236,391.4588872001041,390.9580336001236,391.976956800092,391.4588872001041,391.9593438000884,391.9593438000884,393.1449899999425,0.0,-502462.101811,389.9575894200243,aly_18,90,1,0,34,1,2021_Feb_25_1300,testDotsStepRampPilot,2020.2.5,60.01431942783838,
97,0,97,0,None,None,None,None,394.16099450015463,394.66160889994353,394.16099450015463,395.18027890007943,394.66160889994353,395.1624297001399,395.1624297001399,396.34736250014976,0.0,-502458.897995,393.16172791994177,aly_18,90,1,0,34,1,2021_Feb_25_1300,testDotsStepRampPilot,2020.2.5,60.01431942783838,
98,0,98,0,None,None,None,None,397.36684949998744,397.8816879999358,397.36684949998744,398.40019650012255,397.8816879999358,398.3815941000357,398.3815941000357,399.56798440008424,0.0,-502455.69476,396.36410042014904,aly_18,90,1,0,34,1,2021_Feb_25_1300,testDotsStepRampPilot,2020.2.5,60.01431942783838,
99,0,99,0,None,None,None,None,400.58648850000463,401.08613499999046,400.58648850000463,401.6010627001524,401.08613499999046,401.58837620005943,401.58837620005943,402.7702467001509,1.0,-502452.474236,399.58472232008353,aly_18,90,1,0,34,1,2021_Feb_25_1300,testDotsStepRampPilot,2020.2.5,60.01431942783838,
