trials.thisRepN,trials.thisTrialN,trials.thisN,trials.thisIndex,break_text.started,break_text.stopped,postbreak_text.started,postbreak_text.stopped,fixation1.started,fixation1.stopped,red_dot.started,red_dot.stopped,fixation2.started,fixation2.stopped,pursuit_or_saccade_dot.started,pursuit_or_saccade_dot.stopped,pursuit_saccade_isLeft,pupil_timestamp,psychopy_timestamp,participant,trials_per_condition,pursuit_or_saccade,practice_version,break_every_n_trials,pupil_on,date,expName,psychopyVersion,frameRate,
0,0,0,0,None,None,None,None,40.814050200162455,41.31861740001477,40.814050200162455,41.837593500036746,41.31861740001477,41.81913359998725,41.81913359998725,42.97159980004653,1.0,-503969.204033,39.78483356676685,aly_current_final,90,1,0,34,1,2021_Feb_25_1241,testDotsStepRampPilot,2020.2.5,60.01006966856068,
1,0,1,0,None,None,None,None,43.988250700058416,44.491346300113946,43.988250700058416,45.023685900028795,44.491346300113946,45.0067018000409,45.0067018000409,46.17355479998514,1.0,-503966.004372,42.9882664667132,aly_current_final,90,1,0,34,1,2021_Feb_25_1241,testDotsStepRampPilot,2020.2.5,60.01006966856068,
2,0,2,0,None,None,None,None,47.19266499998048,47.69252540008165,47.19266499998048,48.21151640010066,47.69252540008165,48.1929436000064,48.1929436000064,49.36043070000596,1.0,-503962.802215,46.190221466651806,aly_current_final,90,1,0,34,1,2021_Feb_25_1241,testDotsStepRampPilot,2020.2.5,60.01006966856068,
3,0,3,0,None,None,None,None,50.37893720017746,50.87877500010654,50.37893720017746,51.398376600118354,50.87877500010654,51.379237400135025,51.379237400135025,52.54592020018026,0.0,-503959.615967,49.37709736667263,aly_current_final,90,1,0,34,1,2021_Feb_25_1241,testDotsStepRampPilot,2020.2.5,60.01006966856068,
4,0,4,0,None,None,None,None,53.56320970016532,54.06655520014465,53.56320970016532,54.58306630002335,54.06655520014465,54.56629340001382,54.56629340001382,55.73386030015536,0.0,-503956.430059,52.56258686684693,aly_current_final,90,1,0,34,1,2021_Feb_25_1241,testDotsStepRampPilot,2020.2.5,60.01006966856068,
5,0,5,0,None,None,None,None,56.751619700109586,57.25260550016537,56.751619700109586,57.7871099000331,57.25260550016537,57.76872930000536,57.76872930000536,58.92083459999412,1.0,-503953.242419,55.75052696682202,aly_current_final,90,1,0,34,1,2021_Feb_25_1241,testDotsStepRampPilot,2020.2.5,60.01006966856068,
6,0,6,0,None,None,None,None,59.93790170014836,60.439393300097436,59.93790170014836,60.97353189997375,60.439393300097436,60.955407300032675,60.955407300032675,62.12193540018052,0.0,-503950.055858,58.93750126666079,aly_current_final,90,1,0,34,1,2021_Feb_25_1241,testDotsStepRampPilot,2020.2.5,60.01006966856068,
7,0,7,0,None,None,None,None,63.141402299981564,63.64171580015682,63.141402299981564,64.15937480004504,63.64171580015682,64.14141250005923,64.14141250005923,65.3090860999655,0.0,-503946.853413,62.138602066847184,aly_current_final,90,1,0,34,1,2021_Feb_25_1241,testDotsStepRampPilot,2020.2.5,60.01006966856068,
8,0,8,0,None,None,None,None,66.32815299998038,66.83028220012784,66.32815299998038,67.34667120012455,66.83028220012784,67.32893750001676,67.32893750001676,68.49595820019022,1.0,-503943.666891,65.32575276663216,aly_current_final,90,1,0,34,1,2021_Feb_25_1241,testDotsStepRampPilot,2020.2.5,60.01006966856068,
9,0,9,0,None,None,None,None,69.51479030004703,70.01313570002094,69.51479030004703,70.5331154000014,70.01313570002094,70.5153966001235,70.5153966001235,71.66774050006643,1.0,-503940.480272,68.51262486685688,aly_current_final,90,1,0,34,1,2021_Feb_25_1241,testDotsStepRampPilot,2020.2.5,60.01006966856068,
10,0,10,0,None,None,None,None,72.68520399997942,73.18344589998014,72.68520399997942,73.70226070005447,73.18344589998014,73.6837557000108,73.6837557000108,74.8367978001479,0.0,-503937.308746,71.6844071667331,aly_current_final,90,1,0,34,1,2021_Feb_25_1241,testDotsStepRampPilot,2020.2.5,60.01006966856068,
11,0,11,0,None,None,None,None,75.85436250013299,76.35544369998388,75.85436250013299,76.88926109997556,76.35544369998388,76.87014440004714,76.87014440004714,78.02196520008147,0.0,-503934.140051,74.85346446681457,aly_current_final,90,1,0,34,1,2021_Feb_25_1241,testDotsStepRampPilot,2020.2.5,60.01006966856068,
12,0,12,0,None,None,None,None,79.03993359999731,79.54195550014265,79.03993359999731,80.07535289996304,79.54195550014265,80.05851520015858,80.05851520015858,81.22566800005734,1.0,-503930.954561,78.03863186674813,aly_current_final,90,1,0,34,1,2021_Feb_25_1241,testDotsStepRampPilot,2020.2.5,60.01006966856068,
13,0,13,0,None,None,None,None,82.24259180016816,82.74442490004003,82.24259180016816,83.26228280016221,82.74442490004003,83.24329640017822,83.24329640017822,84.41175710014068,1.0,-503927.751016,81.242334666724,aly_current_final,90,1,0,34,1,2021_Feb_25_1241,testDotsStepRampPilot,2020.2.5,60.01006966856068,
14,0,14,0,None,None,None,None,85.42850890010595,85.93010330013931,85.42850890010595,86.4489844001364,85.93010330013931,86.4308611000888,86.4308611000888,87.58277610014193,0.0,-503924.564281,84.42842376680734,aly_current_final,90,1,0,34,1,2021_Feb_25_1241,testDotsStepRampPilot,2020.2.5,60.01006966856068,
15,0,15,0,None,None,None,None,88.59859840013087,89.09940610011108,88.59859840013087,89.61826130002737,89.09940610011108,89.60168040008284,89.60168040008284,90.75202620006166,0.0,-503921.39418,87.5994427668086,aly_current_final,90,1,0,34,1,2021_Feb_25_1241,testDotsStepRampPilot,2020.2.5,60.01006966856068,
16,0,16,0,None,None,None,None,91.76997060002759,92.27129569998942,91.76997060002759,92.80487340013497,92.27129569998942,92.78665440017357,92.78665440017357,93.93893259996548,1.0,-503918.224096,90.76869286672833,aly_current_final,90,1,0,34,1,2021_Feb_25_1241,testDotsStepRampPilot,2020.2.5,60.01006966856068,
17,0,17,0,None,None,None,None,94.95717300008982,95.45776640018448,94.95717300008982,95.99125299998559,95.45776640018448,95.97313970001414,95.97313970001414,97.14043710008264,0.0,-503915.037122,93.95559926663215,aly_current_final,90,1,0,34,1,2021_Feb_25_1241,testDotsStepRampPilot,2020.2.5,60.01006966856068,
18,0,18,0,None,None,None,None,98.1590466001071,98.6598163000308,98.1590466001071,99.17836920008995,98.6598163000308,99.16063380008563,99.16063380008563,100.32771009998396,1.0,-503911.835353,97.1571037667493,aly_current_final,90,1,0,34,1,2021_Feb_25_1241,testDotsStepRampPilot,2020.2.5,60.01006966856068,
19,0,19,0,None,None,None,None,101.34446860011667,101.84665900003165,101.34446860011667,102.3643814001698,101.84665900003165,102.34702200000174,102.34702200000174,103.51475460012443,0.0,-503908.649053,100.34437676665063,aly_current_final,90,1,0,34,1,2021_Feb_25_1241,testDotsStepRampPilot,2020.2.5,60.01006966856068,
20,0,20,0,None,None,None,None,104.53236730000935,105.0322024000343,104.53236730000935,105.5512030001264,105.0322024000343,105.53383800014853,105.53383800014853,106.68599470006302,0.0,-503905.462032,103.5314212667911,aly_current_final,90,1,0,34,1,2021_Feb_25_1241,testDotsStepRampPilot,2020.2.5,60.01006966856068,
21,0,21,0,None,None,None,None,107.70268900017254,108.2023275999818,107.70268900017254,108.72021770011634,108.2023275999818,108.70465190010145,108.70465190010145,109.8547692000866,1.0,-503902.290762,106.70266136672969,aly_current_final,90,1,0,34,1,2021_Feb_25_1241,testDotsStepRampPilot,2020.2.5,60.01006966856068,
22,0,22,0,None,None,None,None,110.87333209998906,111.38864460005425,110.87333209998906,111.90708480007015,111.38864460005425,111.88928880007006,111.88928880007006,113.05940040014684,0.0,-503899.121562,109.87143586675326,aly_current_final,90,1,0,34,1,2021_Feb_25_1241,testDotsStepRampPilot,2020.2.5,60.01006966856068,
23,0,23,0,None,None,None,None,114.0752816000022,114.57592490012757,114.0752816000022,115.0942644001916,114.57592490012757,115.07521939999424,115.07521939999424,116.24366970011033,0.0,-503895.917207,113.07606706681351,aly_current_final,90,1,0,34,1,2021_Feb_25_1241,testDotsStepRampPilot,2020.2.5,60.01006966856068,
24,0,24,0,None,None,None,None,117.26303370017558,117.7609721000772,117.26303370017558,118.28106230008416,117.7609721000772,118.263392199995,118.263392199995,119.41506550018676,0.0,-503892.732878,116.260336366777,aly_current_final,90,1,0,34,1,2021_Feb_25_1241,testDotsStepRampPilot,2020.2.5,60.01006966856068,
25,0,25,0,None,None,None,None,120.43296580016613,120.94931389996782,120.43296580016613,121.46717169997282,120.94931389996782,121.44933810015209,121.44933810015209,122.61653120000847,1.0,-503889.561117,119.43173216685342,aly_current_final,90,1,0,34,1,2021_Feb_25_1241,testDotsStepRampPilot,2020.2.5,60.01006966856068,
26,0,26,0,None,None,None,None,123.63434250000864,124.13493439997546,123.63434250000864,124.65436310018413,124.13493439997546,124.63572330004536,124.63572330004536,125.78772700019181,1.0,-503886.360255,122.63319786667513,aly_current_final,90,1,0,34,1,2021_Feb_25_1241,testDotsStepRampPilot,2020.2.5,60.01006966856068,
27,0,27,0,None,None,None,None,126.80538600008003,127.30470219999552,126.80538600008003,127.8228897000663,127.30470219999552,127.80490420013666,127.80490420013666,128.95637450017966,1.0,-503883.187171,125.80439366685847,aly_current_final,90,1,0,34,1,2021_Feb_25_1241,testDotsStepRampPilot,2020.2.5,60.01006966856068,
28,0,28,0,None,None,None,None,129.97340670018457,130.47611060016789,129.97340670018457,130.99199070013128,130.47611060016789,130.97629690007307,130.97629690007307,132.12742080003954,1.0,-503880.019749,128.97304116684634,aly_current_final,90,1,0,34,1,2021_Feb_25_1241,testDotsStepRampPilot,2020.2.5,60.01006966856068,
29,0,29,0,None,None,None,None,133.14591070008464,133.6448329000268,133.14591070008464,134.16279510012828,133.6448329000268,134.14486420014873,134.14486420014873,135.312652700115,1.0,-503876.84908,132.14408746670622,aly_current_final,90,1,0,34,1,2021_Feb_25_1241,testDotsStepRampPilot,2020.2.5,60.01006966856068,
30,0,30,0,None,None,None,None,136.32949280017056,136.8329408999998,136.32949280017056,137.34983459999785,136.8329408999998,137.33207870018668,137.33207870018668,138.49927280005068,0.0,-503873.664185,135.32931936678168,aly_current_final,90,1,0,34,1,2021_Feb_25_1241,testDotsStepRampPilot,2020.2.5,60.01006966856068,
31,0,31,0,None,None,None,None,139.5173877000343,140.01763420016505,139.5173877000343,140.53563689999282,140.01763420016505,140.51807900005952,140.51807900005952,141.67035390017554,1.0,-503870.477044,138.51593946671736,aly_current_final,90,1,0,34,1,2021_Feb_25_1241,testDotsStepRampPilot,2020.2.5,60.01006966856068,
32,0,32,0,None,None,None,None,142.68566880002618,143.1867170999758,142.68566880002618,143.70641189999878,143.1867170999758,143.68703910009935,143.68703910009935,144.84047880000435,0.0,-503867.306124,141.68702056684222,aly_current_final,90,1,0,34,1,2021_Feb_25_1241,testDotsStepRampPilot,2020.2.5,60.01006966856068,
33,0,33,0,None,None,None,None,145.85839510010555,146.3729632999748,145.85839510010555,146.89223990007304,146.3729632999748,146.87409120006487,146.87409120006487,148.02562900003977,0.0,-503864.135977,144.85714546667103,aly_current_final,90,1,0,34,1,2021_Feb_25_1241,testDotsStepRampPilot,2020.2.5,60.01006966856068,
34,0,34,0,148.04477840010077,236.1646708000917,236.1646708000917,240.1616613001097,240.1616613001097,240.66828410001472,240.1616613001097,241.18488100008108,240.66828410001472,241.16853699996136,241.16853699996136,242.3203043001704,0.0,-503860.950934,148.04229566670645,aly_current_final,90,1,0,34,1,2021_Feb_25_1241,testDotsStepRampPilot,2020.2.5,60.01006966856068,
35,0,35,0,None,None,None,None,243.3392288000323,243.85442990018055,243.3392288000323,244.3730622001458,243.85442990018055,244.35484010004438,244.35484010004438,245.5070506001357,0.0,-503766.655779,242.33697096683707,aly_current_final,90,1,0,34,1,2021_Feb_25_1241,testDotsStepRampPilot,2020.2.5,60.01006966856068,
36,0,36,0,None,None,None,None,246.52535610017367,247.02557120006531,246.52535610017367,247.5421719001606,247.02557120006531,247.52621969999745,247.52621969999745,248.67652780003846,0.0,-503763.46914,245.52371726680238,aly_current_final,90,1,0,34,1,2021_Feb_25_1241,testDotsStepRampPilot,2020.2.5,60.01006966856068,
37,0,37,0,None,None,None,None,249.6950493999757,250.19542280002497,249.6950493999757,250.71263439999893,250.19542280002497,250.69514940003864,250.69514940003864,251.86172430007719,1.0,-503760.299628,248.69319446670514,aly_current_final,90,1,0,34,1,2021_Feb_25_1241,testDotsStepRampPilot,2020.2.5,60.01006966856068,
38,0,38,0,None,None,None,None,252.879051099997,253.38221499999054,252.879051099997,253.89934910018928,253.38221499999054,253.8813096000813,253.8813096000813,255.04930900014006,0.0,-503757.115113,251.87839096674386,aly_current_final,90,1,0,34,1,2021_Feb_25_1241,testDotsStepRampPilot,2020.2.5,60.01006966856068,
39,0,39,0,None,None,None,None,256.06692540016957,256.56804569996893,256.06692540016957,257.0871958001517,256.56804569996893,257.068623600062,257.068623600062,258.2206343000289,1.0,-503753.927078,255.06597566680674,aly_current_final,90,1,0,34,1,2021_Feb_25_1241,testDotsStepRampPilot,2020.2.5,60.01006966856068,
40,0,40,0,None,None,None,None,259.23965130001307,259.7556568,259.23965130001307,260.28892610012554,259.7556568,260.27102870005183,260.27102870005183,261.4234362000134,0.0,-503750.754558,258.23730096669556,aly_current_final,90,1,0,34,1,2021_Feb_25_1241,testDotsStepRampPilot,2020.2.5,60.01006966856068,
41,0,41,0,None,None,None,None,262.44019610015675,262.9419452000875,262.44019610015675,263.47567129996605,262.9419452000875,263.4577346001752,263.4577346001752,264.62683270010166,0.0,-503747.553156,261.44010286668004,aly_current_final,90,1,0,34,1,2021_Feb_25_1241,testDotsStepRampPilot,2020.2.5,60.01006966856068,
42,0,42,0,None,None,None,None,265.64508430007845,266.1434765001759,265.64508430007845,266.66198169998825,266.1434765001759,266.6450330000371,266.6450330000371,267.7966313001234,1.0,-503744.349958,264.6434993667683,aly_current_final,90,1,0,34,1,2021_Feb_25_1241,testDotsStepRampPilot,2020.2.5,60.01006966856068,
43,0,43,0,None,None,None,None,268.81526640011,269.3306128999684,268.81526640011,269.84852190013044,269.3306128999684,269.82993620005436,269.82993620005436,270.98334929998964,1.0,-503741.179419,267.81329796679006,aly_current_final,90,1,0,34,1,2021_Feb_25_1241,testDotsStepRampPilot,2020.2.5,60.01006966856068,
44,0,44,0,None,None,None,None,271.9996541000437,272.50022749998607,271.9996541000437,273.0168814000208,272.50022749998607,273.00175230018795,273.00175230018795,274.15213560010307,0.0,-503737.993035,271.0000159666563,aly_current_final,90,1,0,34,1,2021_Feb_25_1241,testDotsStepRampPilot,2020.2.5,60.01006966856068,
45,0,45,0,None,None,None,None,275.1701700000558,275.67083250009455,275.1701700000558,276.18675140012056,275.67083250009455,276.1715566001367,276.1715566001367,277.3232794001233,1.0,-503734.824045,274.1688022667697,aly_current_final,90,1,0,34,1,2021_Feb_25_1241,testDotsStepRampPilot,2020.2.5,60.01006966856068,
46,0,46,0,None,None,None,None,278.3435935000889,278.85768999997526,278.3435935000889,279.39123650011607,278.85768999997526,279.37322090007365,279.37322090007365,280.5246812000405,0.0,-503731.650025,277.33994606678993,aly_current_final,90,1,0,34,1,2021_Feb_25_1241,testDotsStepRampPilot,2020.2.5,60.01006966856068,
47,0,47,0,None,None,None,None,281.54225559998304,282.04447500011884,281.54225559998304,282.57786930003203,282.04447500011884,282.5602605000604,282.5602605000604,283.7120032000821,1.0,-503728.451954,280.54134786670716,aly_current_final,90,1,0,34,1,2021_Feb_25_1241,testDotsStepRampPilot,2020.2.5,60.01006966856068,
48,0,48,0,None,None,None,None,284.7312706001103,285.24676790018566,284.7312706001103,285.7642634001095,285.24676790018566,285.7471004000399,285.7471004000399,286.91465770010836,0.0,-503725.264026,283.72866986674876,aly_current_final,90,1,0,34,1,2021_Feb_25_1241,testDotsStepRampPilot,2020.2.5,60.01006966856068,
49,0,49,0,None,None,None,None,287.93218440003693,288.4337540001143,287.93218440003693,288.95135440002196,288.4337540001143,288.9353795000352,288.9353795000352,290.1007295001764,1.0,-503722.06182,286.931324366775,aly_current_final,90,1,0,34,1,2021_Feb_25_1241,testDotsStepRampPilot,2020.2.5,60.01006966856068,
50,0,50,0,None,None,None,None,291.11822980013676,291.62044420000166,291.11822980013676,292.15346140018664,291.62044420000166,292.13906059996225,292.13906059996225,293.28798660007305,1.0,-503718.876201,290.11739616684304,aly_current_final,90,1,0,34,1,2021_Feb_25_1241,testDotsStepRampPilot,2020.2.5,60.01006966856068,
51,0,51,0,None,None,None,None,294.3059664000757,294.8073812001385,294.3059664000757,295.34029770013876,294.8073812001385,295.3239278001711,295.3239278001711,296.4734543999657,0.0,-503715.687889,293.3046532667397,aly_current_final,90,1,0,34,1,2021_Feb_25_1241,testDotsStepRampPilot,2020.2.5,60.01006966856068,
52,0,52,0,None,None,None,None,297.4914043999743,297.9933987001423,297.4914043999743,298.52751050004736,297.9933987001423,298.5094443000853,298.5094443000853,299.67875990015455,0.0,-503712.503052,296.49012106663235,aly_current_final,90,1,0,34,1,2021_Feb_25_1241,testDotsStepRampPilot,2020.2.5,60.01006966856068,
53,0,53,0,None,None,None,None,300.6973508000374,301.19611130002886,300.6973508000374,301.71404440002516,301.19611130002886,301.69494990003295,301.69494990003295,302.86272189999,1.0,-503709.296983,299.6954265668212,aly_current_final,90,1,0,34,1,2021_Feb_25_1241,testDotsStepRampPilot,2020.2.5,60.01006966856068,
54,0,54,0,None,None,None,None,303.87911730003543,304.3823140000459,303.87911730003543,304.9001532001421,304.3823140000459,304.8828851999715,304.8828851999715,306.03450030018575,1.0,-503706.113936,302.87938856665664,aly_current_final,90,1,0,34,1,2021_Feb_25_1241,testDotsStepRampPilot,2020.2.5,60.01006966856068,
55,0,55,0,None,None,None,None,307.051244399976,307.56884080008604,307.051244399976,308.08663080004044,307.56884080008604,308.06962960003875,308.06962960003875,309.2215717001818,0.0,-503702.942211,306.0511669668524,aly_current_final,90,1,0,34,1,2021_Feb_25_1241,testDotsStepRampPilot,2020.2.5,60.01006966856068,
56,0,56,0,None,None,None,None,310.2389327001292,310.7379834000021,310.2389327001292,311.2575205999892,310.7379834000021,311.2379640999716,311.2379640999716,312.3908027000725,1.0,-503699.754595,309.23823836684846,aly_current_final,90,1,0,34,1,2021_Feb_25_1241,testDotsStepRampPilot,2020.2.5,60.01006966856068,
57,0,57,0,None,None,None,None,313.4093971999828,313.924612400122,313.4093971999828,314.4434779000003,313.924612400122,314.423987200018,314.423987200018,315.57760490011424,0.0,-503696.585701,312.4074693667392,aly_current_final,90,1,0,34,1,2021_Feb_25_1241,testDotsStepRampPilot,2020.2.5,60.01006966856068,
58,0,58,0,None,None,None,None,316.5968755001668,317.1116013000719,316.5968755001668,317.6301388000138,317.1116013000719,317.6130208000541,317.6130208000541,318.7635065000504,0.0,-503693.398442,315.5942715667809,aly_current_final,90,1,0,34,1,2021_Feb_25_1241,testDotsStepRampPilot,2020.2.5,60.01006966856068,
59,0,59,0,None,None,None,None,319.7792289000936,320.28332490008324,319.7792289000936,320.81612520013005,320.28332490008324,320.79917960008606,320.79917960008606,321.966632100055,1.0,-503690.213082,318.7801731667171,aly_current_final,90,1,0,34,1,2021_Feb_25_1241,testDotsStepRampPilot,2020.2.5,60.01006966856068,
60,0,60,0,None,None,None,None,322.98536529997364,323.4846139000729,322.98536529997364,324.00251370016485,323.4846139000729,323.9845887001138,323.9845887001138,325.1522969000507,1.0,-503687.009896,321.98329876672165,aly_current_final,90,1,0,34,1,2021_Feb_25_1241,testDotsStepRampPilot,2020.2.5,60.01006966856068,
61,0,61,0,None,None,None,None,326.1703580999747,326.67160920007154,326.1703580999747,327.18912890017964,326.67160920007154,327.173821200151,327.173821200151,328.3239862001501,1.0,-503683.823832,325.16896356671737,aly_current_final,90,1,0,34,1,2021_Feb_25_1241,testDotsStepRampPilot,2020.2.5,60.01006966856068,
62,0,62,0,None,None,None,None,329.3390558999963,329.84016680018976,329.3390558999963,330.35776609997265,329.84016680018976,330.34125810000114,330.34125810000114,331.4931811999995,1.0,-503680.652905,328.34065286681675,aly_current_final,90,1,0,34,1,2021_Feb_25_1241,testDotsStepRampPilot,2020.2.5,60.01006966856068,
63,0,63,0,None,None,None,None,332.51122110011056,333.0269794999622,332.51122110011056,333.5472091999836,333.0269794999622,333.52778810006566,333.52778810006566,334.6800014001783,1.0,-503677.483119,331.5098478666662,aly_current_final,90,1,0,34,1,2021_Feb_25_1241,testDotsStepRampPilot,2020.2.5,60.01006966856068,
64,0,64,0,None,None,None,None,335.69826179998927,336.19831150001846,335.69826179998927,336.7133963999804,336.19831150001846,336.6985287000425,336.6985287000425,337.8495344000403,0.0,-503674.296088,334.69666806684495,aly_current_final,90,1,0,34,1,2021_Feb_25_1241,testDotsStepRampPilot,2020.2.5,60.01006966856068,
65,0,65,0,None,None,None,None,338.867648600135,339.36727310018614,338.867648600135,339.8850177000277,339.36727310018614,339.8677648999728,339.8677648999728,341.0351126999594,0.0,-503671.126792,337.86620106670694,aly_current_final,90,1,0,34,1,2021_Feb_25_1241,testDotsStepRampPilot,2020.2.5,60.01006966856068,
66,0,66,0,None,None,None,None,342.05189530015923,342.5542682001833,342.05189530015923,343.07189889997244,342.5542682001833,343.05493370001204,343.05493370001204,344.20646660006605,0.0,-503667.941202,341.0517793666261,aly_current_final,90,1,0,34,1,2021_Feb_25_1241,testDotsStepRampPilot,2020.2.5,60.01006966856068,
67,0,67,0,None,None,None,None,345.22380769997835,345.72283149999566,345.22380769997835,346.2411863000598,345.72283149999566,346.2240415001288,346.2240415001288,347.374303500168,0.0,-503664.769925,344.2231332667327,aly_current_final,90,1,0,34,1,2021_Feb_25_1241,testDotsStepRampPilot,2020.2.5,60.01006966856068,
68,0,68,0,347.3932306000497,370.81604990013875,370.81604990013875,374.8132586001884,374.8132586001884,375.32009789999574,374.8132586001884,375.8382014001254,375.32009789999574,375.8190205001738,375.8190205001738,376.9879263001494,0.0,-503661.602507,347.3909701668347,aly_current_final,90,1,0,34,1,2021_Feb_25_1241,testDotsStepRampPilot,2020.2.5,60.01006966856068,
69,0,69,0,None,None,None,None,378.0070309001021,378.5069677999709,378.0070309001021,379.02498750016093,378.5069677999709,379.0074769000057,379.0074769000057,380.15918390010484,0.0,-503631.988559,377.00459296681606,aly_current_final,90,1,0,34,1,2021_Feb_25_1241,testDotsStepRampPilot,2020.2.5,60.01006966856068,
70,0,70,0,None,None,None,None,381.1756418000441,381.67702349997126,381.1756418000441,382.19354290002957,381.67702349997126,382.17795519996434,382.17795519996434,383.3277557999827,0.0,-503628.816963,380.1758505667715,aly_current_final,90,1,0,34,1,2021_Feb_25_1241,testDotsStepRampPilot,2020.2.5,60.01006966856068,
71,0,71,0,None,None,None,None,384.3465593000874,384.86381410015747,384.3465593000874,385.3974779001437,384.86381410015747,385.38114830013365,385.38114830013365,386.54771580011584,0.0,-503625.64875,383.34442246664935,aly_current_final,90,1,0,34,1,2021_Feb_25_1241,testDotsStepRampPilot,2020.2.5,60.01006966856068,
72,0,72,0,None,None,None,None,387.5664831001777,388.0669603999704,387.5664831001777,388.6007250000257,388.0669603999704,388.58262960007414,388.58262960007414,389.7331120001618,0.0,-503622.428464,386.5643824667825,aly_current_final,90,1,0,34,1,2021_Feb_25_1241,testDotsStepRampPilot,2020.2.5,60.01006966856068,
73,0,73,0,None,None,None,None,390.7505020000972,391.2536643999629,390.7505020000972,391.76920700003393,391.2536643999629,391.75391570013016,391.75391570013016,392.90348410001025,1.0,-503619.243856,389.74977866682843,aly_current_final,90,1,0,34,1,2021_Feb_25_1241,testDotsStepRampPilot,2020.2.5,60.01006966856068,
74,0,74,0,None,None,None,None,393.92315360018983,394.42316200002097,393.92315360018983,394.94077099999413,394.42316200002097,394.92314570001327,394.92314570001327,396.0905330001842,0.0,-503616.071147,392.9201507666769,aly_current_final,90,1,0,34,1,2021_Feb_25_1241,testDotsStepRampPilot,2020.2.5,60.01006966856068,
75,0,75,0,None,None,None,None,397.10959740006365,397.60909990011714,397.10959740006365,398.1265449000057,397.60909990011714,398.1095675001852,398.1095675001852,399.2764815001283,1.0,-503612.885791,396.1071996668509,aly_current_final,90,1,0,34,1,2021_Feb_25_1241,testDotsStepRampPilot,2020.2.5,60.01006966856068,
76,0,76,0,None,None,None,None,400.2941344999708,400.79572380008176,400.2941344999708,401.3136411001906,400.79572380008176,401.29664440010674,401.29664440010674,402.44823910016567,1.0,-503609.7,399.29314816679494,aly_current_final,90,1,0,34,1,2021_Feb_25_1241,testDotsStepRampPilot,2020.2.5,60.01006966856068,
77,0,77,0,None,None,None,None,403.4663009000942,403.96480139996856,403.4663009000942,404.4819698999636,403.96480139996856,404.4649139000103,404.4649139000103,405.6159837001469,1.0,-503606.526522,402.4649057668323,aly_current_final,90,1,0,34,1,2021_Feb_25_1241,testDotsStepRampPilot,2020.2.5,60.01006966856068,
78,0,78,0,None,None,None,None,406.63241220009513,407.13622710015625,406.63241220009513,407.6700768000446,407.13622710015625,407.6518137000967,407.6518137000967,408.80431820009835,1.0,-503603.360825,405.63265036681355,aly_current_final,90,1,0,34,1,2021_Feb_25_1241,testDotsStepRampPilot,2020.2.5,60.01006966856068,
79,0,79,0,None,None,None,None,409.8239722000435,410.3380816001445,409.8239722000435,410.85667250002734,410.3380816001445,410.83759560016915,410.83759560016915,412.0054703000933,0.0,-503600.171768,408.820984866765,aly_current_final,90,1,0,34,1,2021_Feb_25_1241,testDotsStepRampPilot,2020.2.5,60.01006966856068,
80,0,80,0,None,None,None,None,413.02258230000734,413.5250109001063,413.02258230000734,414.04265660000965,413.5250109001063,414.0247164000757,414.0247164000757,415.19204290001653,1.0,-503596.970096,412.02213696675994,aly_current_final,90,1,0,34,1,2021_Feb_25_1241,testDotsStepRampPilot,2020.2.5,60.01006966856068,
81,0,81,0,None,None,None,None,416.2101565001067,416.71048700017855,416.2101565001067,417.22936570015736,416.71048700017855,417.21303119999357,417.21303119999357,418.37962789996527,1.0,-503593.784448,415.2087095666832,aly_current_final,90,1,0,34,1,2021_Feb_25_1241,testDotsStepRampPilot,2020.2.5,60.01006966856068,
82,0,82,0,None,None,None,None,419.39747299999,419.8984429000411,419.39747299999,420.4160758999642,419.8984429000411,420.39757220004685,420.39757220004685,421.56619519996457,1.0,-503590.59697,418.3962945666319,aly_current_final,90,1,0,34,1,2021_Feb_25_1241,testDotsStepRampPilot,2020.2.5,60.01006966856068,
83,0,83,0,None,None,None,None,422.58228540001437,423.0850090000313,422.58228540001437,423.6007615001872,423.0850090000313,423.5855980999768,423.5855980999768,424.7366236001253,0.0,-503587.410247,421.5828618666312,aly_current_final,90,1,0,34,1,2021_Feb_25_1241,testDotsStepRampPilot,2020.2.5,60.01006966856068,
84,0,84,0,None,None,None,None,425.7539391000755,426.2534902000334,425.7539391000755,426.7723741000518,426.2534902000334,426.7530902000144,426.7530902000144,427.9237389001064,1.0,-503584.238189,424.75329026679196,aly_current_final,90,1,0,34,1,2021_Feb_25_1241,testDotsStepRampPilot,2020.2.5,60.01006966856068,
85,0,85,0,None,None,None,None,428.94203969999216,429.4406991000287,428.94203969999216,429.95847430010326,429.4406991000287,429.940271000145,429.940271000145,431.108355600154,1.0,-503581.053037,427.94040556677305,aly_current_final,90,1,0,34,1,2021_Feb_25_1241,testDotsStepRampPilot,2020.2.5,60.01006966856068,
86,0,86,0,None,None,None,None,432.126981300069,432.62747510010377,432.126981300069,433.14511090004817,432.62747510010377,433.1275448000524,433.1275448000524,434.2796495000366,1.0,-503577.867921,431.1250222668207,aly_current_final,90,1,0,34,1,2021_Feb_25_1241,testDotsStepRampPilot,2020.2.5,60.01006966856068,
87,0,87,0,None,None,None,None,435.2946288001258,435.79638039995916,435.2946288001258,436.3131171001587,435.79638039995916,436.2983838999644,436.2983838999644,437.4490116001107,0.0,-503574.697213,434.29631616670326,aly_current_final,90,1,0,34,1,2021_Feb_25_1241,testDotsStepRampPilot,2020.2.5,60.01006966856068,
88,0,88,0,None,None,None,None,438.46740500000305,438.9829601000529,438.46740500000305,439.5017717999872,438.9829601000529,439.48343680007383,439.48343680007383,440.63527660002,0.0,-503571.527021,437.46567826677733,aly_current_final,90,1,0,34,1,2021_Feb_25_1241,testDotsStepRampPilot,2020.2.5,60.01006966856068,
89,0,89,0,None,None,None,None,441.6520304000005,442.1542581000831,441.6520304000005,442.67164900014177,442.1542581000831,442.6536905001849,442.6536905001849,443.806197399972,1.0,-503568.340999,440.65194326668666,aly_current_final,90,1,0,34,1,2021_Feb_25_1241,testDotsStepRampPilot,2020.2.5,60.01006966856068,
90,0,90,0,None,None,None,None,444.8245223001577,445.3220876001287,444.8245223001577,445.8424261000473,445.3220876001287,445.82337910006754,445.82337910006754,446.99258710001595,1.0,-503565.16952,443.82286406663866,aly_current_final,90,1,0,34,1,2021_Feb_25_1241,testDotsStepRampPilot,2020.2.5,60.01006966856068,
91,0,91,0,None,None,None,None,448.0091034001671,448.50990359997377,448.0091034001671,449.02755540004,448.50990359997377,449.0099981999956,449.0099981999956,450.1773261001799,0.0,-503561.984139,447.0092537666826,aly_current_final,90,1,0,34,1,2021_Feb_25_1241,testDotsStepRampPilot,2020.2.5,60.01006966856068,
92,0,92,0,None,None,None,None,451.196643400006,451.6967370000202,451.196643400006,452.2140467001591,451.6967370000202,452.1970591000281,452.1970591000281,453.34857180016115,1.0,-503558.798709,450.1939927668466,aly_current_final,90,1,0,34,1,2021_Feb_25_1241,testDotsStepRampPilot,2020.2.5,60.01006966856068,
93,0,93,0,None,None,None,None,454.36656230012886,454.8646085001528,454.36656230012886,455.3834011000581,454.8646085001528,455.367631000001,455.367631000001,456.5178881001193,1.0,-503555.627575,453.3652384668278,aly_current_final,90,1,0,34,1,2021_Feb_25_1241,testDotsStepRampPilot,2020.2.5,60.01006966856068,
94,0,94,0,None,None,None,None,457.5370849999599,458.0514402000699,457.5370849999599,458.57059670006856,458.0514402000699,458.55344090005383,458.55344090005383,459.7035457000602,1.0,-503552.45806,456.53455476678596,aly_current_final,90,1,0,34,1,2021_Feb_25_1241,testDotsStepRampPilot,2020.2.5,60.01006966856068,
95,0,95,0,None,None,None,None,460.72024430008605,461.22362220007926,460.72024430008605,461.7384805001784,461.22362220007926,461.7237075001467,461.7237075001467,462.87511580018327,0.0,-503549.272966,459.72021236672686,aly_current_final,90,1,0,34,1,2021_Feb_25_1241,testDotsStepRampPilot,2020.2.5,60.01006966856068,
96,0,96,0,None,None,None,None,463.8927549000364,464.3927575000562,463.8927549000364,464.9104852001183,464.3927575000562,464.8916954000015,464.8916954000015,466.0444055001717,0.0,-503546.101706,462.8917824668499,aly_current_final,90,1,0,34,1,2021_Feb_25_1241,testDotsStepRampPilot,2020.2.5,60.01006966856068,
97,0,97,0,None,None,None,None,467.06020680000074,467.5627176000271,467.06020680000074,468.0784166001249,467.5627176000271,468.06331620016135,468.06331620016135,469.2138879999984,1.0,-503542.931963,466.06107216683836,aly_current_final,90,1,0,34,1,2021_Feb_25_1241,testDotsStepRampPilot,2020.2.5,60.01006966856068,
98,0,98,0,None,None,None,None,470.23273950000294,470.73287319997326,470.23273950000294,471.2498099000659,470.73287319997326,471.23275110009126,471.23275110009126,472.3842154000886,0.0,-503539.762145,469.23055466666506,aly_current_final,90,1,0,34,1,2021_Feb_25_1241,testDotsStepRampPilot,2020.2.5,60.01006966856068,
99,0,99,0,None,None,None,None,473.4017017001752,473.90109400008805,473.4017017001752,474.41887359996326,473.90109400008805,474.401982099982,474.401982099982,475.55335780000314,1.0,-503536.591779,472.40088206675523,aly_current_final,90,1,0,34,1,2021_Feb_25_1241,testDotsStepRampPilot,2020.2.5,60.01006966856068,
