trials.thisRepN,trials.thisTrialN,trials.thisN,trials.thisIndex,break_text.started,break_text.stopped,postbreak_text.started,postbreak_text.stopped,fixation1.started,fixation1.stopped,red_dot.started,red_dot.stopped,fixation2.started,fixation2.stopped,pursuit_or_saccade_dot.started,pursuit_or_saccade_dot.stopped,pursuit_saccade_isLeft,pupil_timestamp,psychopy_timestamp,participant,trials_per_condition,pursuit_or_saccade,practice_version,break_every_n_trials,pupil_on,date,expName,psychopyVersion,frameRate,
0,0,0,0,None,None,None,None,31.92761359992437,32.430920799961314,31.92761359992437,32.946203199913725,32.430920799961314,32.93068389990367,32.93068389990367,34.04866709979251,0.0,-503320.084362,30.893475366492446,aly_new,90,1,0,34,1,2021_Feb_25_1252,testDotsStepRampPilot,2020.2.5,60.08275801952466,
1,0,1,0,None,None,None,None,35.06599229993299,35.56584379984997,35.06599229993299,36.08399019995704,35.56584379984997,36.06659559998661,36.06659559998661,37.184919300023466,1.0,-503316.922083,34.065333766459176,aly_new,90,1,0,34,1,2021_Feb_25_1252,testDotsStepRampPilot,2020.2.5,60.08275801952466,
2,0,2,0,None,None,None,None,38.20189949986525,38.70177869987674,38.20189949986525,39.219912299886346,38.70177869987674,39.20384069997817,39.20384069997817,40.32110379985534,0.0,-503313.785757,37.20158596669013,aly_new,90,1,0,34,1,2021_Feb_25_1252,testDotsStepRampPilot,2020.2.5,60.08275801952466,
3,0,3,0,None,None,None,None,41.33762879995629,41.839701500022784,41.33762879995629,42.372345899930224,41.839701500022784,42.35744009981863,42.35744009981863,43.47456129989587,1.0,-503310.650171,40.337770466522,aly_new,90,1,0,34,1,2021_Feb_25_1252,testDotsStepRampPilot,2020.2.5,60.08275801952466,
4,0,4,0,None,None,None,None,44.492832500021905,45.00818909984082,44.492832500021905,45.527123800013214,45.00818909984082,45.508329699980095,45.508329699980095,46.62854279996827,1.0,-503307.496653,43.49122796656253,aly_new,90,1,0,34,1,2021_Feb_25_1252,testDotsStepRampPilot,2020.2.5,60.08275801952466,
5,0,5,0,None,None,None,None,47.646644399967045,48.162119899876416,47.646644399967045,48.67996029998176,48.162119899876416,48.66193960001692,48.66193960001692,49.78125449991785,0.0,-503304.341941,46.64520946663494,aly_new,90,1,0,34,1,2021_Feb_25_1252,testDotsStepRampPilot,2020.2.5,60.08275801952466,
6,0,6,0,None,None,None,None,50.79690769989975,51.299103799974546,50.79690769989975,51.8331575000193,51.299103799974546,51.81608399981633,51.81608399981633,52.93468949990347,1.0,-503301.190186,49.797921166584516,aly_new,90,1,0,34,1,2021_Feb_25_1252,testDotsStepRampPilot,2020.2.5,60.08275801952466,
7,0,7,0,None,None,None,None,53.949824299896136,54.45249959989451,53.949824299896136,54.969145899871364,54.45249959989451,54.95319119980559,54.95319119980559,56.06983649986796,1.0,-503298.03686,52.951356166570136,aly_new,90,1,0,34,1,2021_Feb_25_1252,testDotsStepRampPilot,2020.2.5,60.08275801952466,
8,0,8,0,None,None,None,None,57.087223399896175,57.58888169983402,57.087223399896175,58.105862399796024,57.58888169983402,58.08939869981259,58.08939869981259,59.207023199880496,1.0,-503294.900939,56.08650316653463,aly_new,90,1,0,34,1,2021_Feb_25_1252,testDotsStepRampPilot,2020.2.5,60.08275801952466,
9,0,9,0,None,None,None,None,60.2217105999589,60.72413169988431,60.2217105999589,61.24178139981814,60.72413169988431,61.22486009984277,61.22486009984277,62.34485509991646,1.0,-503291.76459,59.22368986654716,aly_new,90,1,0,34,1,2021_Feb_25_1252,testDotsStepRampPilot,2020.2.5,60.08275801952466,
10,0,10,0,None,None,None,None,63.36292969994247,63.877674099989235,63.36292969994247,64.39560249983333,63.877674099989235,64.37771509983577,64.37771509983577,65.49651720002294,1.0,-503288.62612,62.361521766583124,aly_new,90,1,0,34,1,2021_Feb_25_1252,testDotsStepRampPilot,2020.2.5,60.08275801952466,
11,0,11,0,None,None,None,None,66.5127126998268,67.01537299994379,66.5127126998268,67.53036489989609,67.01537299994379,67.51537699997425,67.51537699997425,68.63195189996623,1.0,-503285.475067,65.5131838666896,aly_new,90,1,0,34,1,2021_Feb_25_1252,testDotsStepRampPilot,2020.2.5,60.08275801952466,
12,0,12,0,None,None,None,None,69.65060729999095,70.15131419990212,69.65060729999095,70.66871009999886,70.15131419990212,70.65011029993184,70.65011029993184,71.77003589994274,1.0,-503282.339157,68.64861856663289,aly_new,90,1,0,34,1,2021_Feb_25_1252,testDotsStepRampPilot,2020.2.5,60.08275801952466,
13,0,13,0,None,None,None,None,72.78633569995873,73.28592980001122,72.78633569995873,73.80417849984951,73.28592980001122,73.78871999983676,73.78871999983676,74.90515659982339,1.0,-503279.201049,71.7867025666094,aly_new,90,1,0,34,1,2021_Feb_25_1252,testDotsStepRampPilot,2020.2.5,60.08275801952466,
14,0,14,0,None,None,None,None,75.92322160000913,76.42436159984209,75.92322160000913,76.93945379997604,76.42436159984209,76.92492299992591,76.92492299992591,78.04256520001218,0.0,-503276.065516,74.92182326649005,aly_new,90,1,0,34,1,2021_Feb_25_1252,testDotsStepRampPilot,2020.2.5,60.08275801952466,
15,0,15,0,None,None,None,None,79.06064079981297,79.5596632999368,79.06064079981297,80.07786650001071,79.5596632999368,80.06028719991446,80.06028719991446,81.17851909995079,0.0,-503272.926218,78.05923186667884,aly_new,90,1,0,34,1,2021_Feb_25_1252,testDotsStepRampPilot,2020.2.5,60.08275801952466,
16,0,16,0,None,None,None,None,82.1972858000081,82.69768119999208,82.1972858000081,83.21368619985878,82.69768119999208,83.19824890000746,83.19824890000746,84.31416439986788,1.0,-503269.792887,81.19518576661746,aly_new,90,1,0,34,1,2021_Feb_25_1252,testDotsStepRampPilot,2020.2.5,60.08275801952466,
17,0,17,0,None,None,None,None,85.33366959984414,85.83300769980997,85.33366959984414,86.35090409987606,85.83300769980997,86.33350289985538,86.33350289985538,87.45193380001001,1.0,-503266.656457,84.33083106653454,aly_new,90,1,0,34,1,2021_Feb_25_1252,testDotsStepRampPilot,2020.2.5,60.08275801952466,
18,0,18,0,None,None,None,None,88.46803319989704,88.97016499983147,88.46803319989704,89.48749789991416,88.97016499983147,89.47051929985173,89.47051929985173,90.58781759999692,0.0,-503263.51881,87.46860046667668,aly_new,90,1,0,34,1,2021_Feb_25_1252,testDotsStepRampPilot,2020.2.5,60.08275801952466,
19,0,19,0,None,None,None,None,91.60616269987077,92.10672889999114,91.60616269987077,92.62255229987204,92.10672889999114,92.60704789985903,92.60704789985903,93.7254240999464,1.0,-503260.382871,90.60448426666359,aly_new,90,1,0,34,1,2021_Feb_25_1252,testDotsStepRampPilot,2020.2.5,60.08275801952466,
20,0,20,0,None,None,None,None,94.7457249998115,95.2598726998549,94.7457249998115,95.79366489988752,95.2598726998549,95.77586139994673,95.77586139994673,96.894681799924,0.0,-503257.241779,93.74209076661306,aly_new,90,1,0,34,1,2021_Feb_25_1252,testDotsStepRampPilot,2020.2.5,60.08275801952466,
21,0,21,0,None,None,None,None,97.91292509995401,98.4287076999899,97.91292509995401,98.94680699985474,98.4287076999899,98.92936329985969,98.92936329985969,100.04798319982365,0.0,-503254.07593,96.91134846659067,aly_new,90,1,0,34,1,2021_Feb_25_1252,testDotsStepRampPilot,2020.2.5,60.08275801952466,
22,0,22,0,None,None,None,None,101.06592489988543,101.56676759989932,101.06592489988543,102.09990519983694,101.56676759989932,102.08234339999035,102.08234339999035,103.20188739988953,1.0,-503250.922873,100.06464986649031,aly_new,90,1,0,34,1,2021_Feb_25_1252,testDotsStepRampPilot,2020.2.5,60.08275801952466,
23,0,23,0,None,None,None,None,104.21806219988503,104.71866269991733,104.21806219988503,105.23513879999518,104.71866269991733,105.21982439979911,105.21982439979911,106.33665769989602,1.0,-503247.768977,103.2185540665562,aly_new,90,1,0,34,1,2021_Feb_25_1252,testDotsStepRampPilot,2020.2.5,60.08275801952466,
24,0,24,0,None,None,None,None,107.35288159991615,107.85565819987096,107.35288159991615,108.37207649997436,107.85565819987096,108.35589180001989,108.35589180001989,109.47389399982058,1.0,-503244.634912,106.35332436656269,aly_new,90,1,0,34,1,2021_Feb_25_1252,testDotsStepRampPilot,2020.2.5,60.08275801952466,
25,0,25,0,None,None,None,None,110.49324609991163,110.99133499991149,110.49324609991163,111.50976619985886,110.99133499991149,111.49075259990059,111.49075259990059,112.6111748998519,1.0,-503241.494639,109.49056066648724,aly_new,90,1,0,34,1,2021_Feb_25_1252,testDotsStepRampPilot,2020.2.5,60.08275801952466,
26,0,26,0,None,None,None,None,113.6289558999706,114.14403079985641,113.6289558999706,114.66275309980847,114.14403079985641,114.64545760001056,114.64545760001056,115.76427119993605,1.0,-503238.360118,112.62784156651857,aly_new,90,1,0,34,1,2021_Feb_25_1252,testDotsStepRampPilot,2020.2.5,60.08275801952466,
27,0,27,0,None,None,None,None,116.78257839987054,117.29689739993773,116.78257839987054,117.81558259995654,117.29689739993773,117.79827199992724,117.79827199992724,118.9167987999972,0.0,-503235.207081,115.78093786660271,aly_new,90,1,0,34,1,2021_Feb_25_1252,testDotsStepRampPilot,2020.2.5,60.08275801952466,
28,0,28,0,None,None,None,None,119.93285569990985,120.43500850000419,119.93285569990985,120.9512822998222,120.43500850000419,120.93580570002086,120.93580570002086,122.05251539987512,1.0,-503232.054337,118.93346546666386,aly_new,90,1,0,34,1,2021_Feb_25_1252,testDotsStepRampPilot,2020.2.5,60.08275801952466,
29,0,29,0,None,None,None,None,123.06897839996964,123.57035920000635,123.06897839996964,124.08895789994858,123.57035920000635,124.07225199998356,124.07225199998356,125.19021279993467,1.0,-503228.918952,122.06918206654179,aly_new,90,1,0,34,1,2021_Feb_25_1252,testDotsStepRampPilot,2020.2.5,60.08275801952466,
30,0,30,0,None,None,None,None,126.20917039993219,126.70709579996765,126.20917039993219,127.22487439983524,126.70709579996765,127.20638589980081,127.20638589980081,128.32562579982914,0.0,-503225.778342,125.20687946660134,aly_new,90,1,0,34,1,2021_Feb_25_1252,testDotsStepRampPilot,2020.2.5,60.08275801952466,
31,0,31,0,None,None,None,None,129.34170099999756,129.84466179995798,129.34170099999756,130.36008679983206,129.84466179995798,130.34503449988551,130.34503449988551,131.46269949991256,1.0,-503222.646025,128.34229246649582,aly_new,90,1,0,34,1,2021_Feb_25_1252,testDotsStepRampPilot,2020.2.5,60.08275801952466,
32,0,32,0,None,None,None,None,132.47975159995258,132.98011419991963,132.47975159995258,133.49784939992242,132.98011419991963,133.47959030000493,133.47959030000493,134.5996369998902,0.0,-503219.508162,131.47936616657924,aly_new,90,1,0,34,1,2021_Feb_25_1252,testDotsStepRampPilot,2020.2.5,60.08275801952466,
33,0,33,0,None,None,None,None,135.61593209998682,136.11839089985006,135.61593209998682,136.63410139991902,136.11839089985006,136.61796139995568,136.61796139995568,137.73375689983368,0.0,-503216.371797,134.6163036665569,aly_new,90,1,0,34,1,2021_Feb_25_1252,testDotsStepRampPilot,2020.2.5,60.08275801952466,
34,0,34,0,137.75318249990232,170.15127039980143,170.15127039980143,174.1501395998057,174.1501395998057,174.65453129983507,174.1501395998057,175.17169879982248,174.65453129983507,175.15673159994185,175.15673159994185,176.27385240001604,1.0,-503213.236763,137.75042356650036,aly_new,90,1,0,34,1,2021_Feb_25_1252,testDotsStepRampPilot,2020.2.5,60.08275801952466,
35,0,35,0,None,None,None,None,177.29060139996,177.7927794000134,177.29060139996,178.32526209997013,177.7927794000134,178.31009439984336,178.31009439984336,179.42680539982393,1.0,-503174.697539,176.29051906668272,aly_new,90,1,0,34,1,2021_Feb_25_1252,testDotsStepRampPilot,2020.2.5,60.08275801952466,
36,0,36,0,None,None,None,None,180.44405269995332,180.94535900000483,180.44405269995332,181.4614390998613,180.94535900000483,181.44616749999113,181.44616749999113,182.56405249983072,1.0,-503171.544312,179.4434720664906,aly_new,90,1,0,34,1,2021_Feb_25_1252,testDotsStepRampPilot,2020.2.5,60.08275801952466,
37,0,37,0,None,None,None,None,183.58281739987433,184.0986419999972,183.58281739987433,184.61360839987174,184.0986419999972,184.59920559986494,184.59920559986494,185.71591269993223,0.0,-503168.406251,182.5807191664974,aly_new,90,1,0,34,1,2021_Feb_25_1252,testDotsStepRampPilot,2020.2.5,60.08275801952466,
38,0,38,0,None,None,None,None,186.7335335998796,187.23537369980477,186.7335335998796,187.75309799984097,187.23537369980477,187.73488809983246,187.73488809983246,188.8533534000162,1.0,-503165.255022,185.7325793665989,aly_new,90,1,0,34,1,2021_Feb_25_1252,testDotsStepRampPilot,2020.2.5,60.08275801952466,
39,0,39,0,None,None,None,None,189.87120789987966,190.36945689981803,189.87120789987966,190.88826089981012,190.36945689981803,190.87236039992422,190.87236039992422,191.98768529994413,0.0,-503162.117136,188.87002006668288,aly_new,90,1,0,34,1,2021_Feb_25_1252,testDotsStepRampPilot,2020.2.5,60.08275801952466,
40,0,40,0,None,None,None,None,193.00492699979804,193.50830290000886,193.00492699979804,194.04160279990174,193.50830290000886,194.0258872997947,194.0258872997947,195.14347349992022,0.0,-503158.983011,192.0043519666108,aly_new,90,1,0,34,1,2021_Feb_25_1252,testDotsStepRampPilot,2020.2.5,60.08275801952466,
41,0,41,0,None,None,None,None,196.1626386998687,196.6760243999306,196.1626386998687,197.1951939999126,196.6760243999306,197.1774010998197,197.1774010998197,198.29594749980606,0.0,-503155.827807,195.1601401665869,aly_new,90,1,0,34,1,2021_Feb_25_1252,testDotsStepRampPilot,2020.2.5,60.08275801952466,
42,0,42,0,None,None,None,None,199.31498019979335,199.81486039981246,199.31498019979335,200.34836649987847,199.81486039981246,200.33037519990467,200.33037519990467,201.44925309997052,1.0,-503152.674998,198.31261416647274,aly_new,90,1,0,34,1,2021_Feb_25_1252,testDotsStepRampPilot,2020.2.5,60.08275801952466,
43,0,43,0,None,None,None,None,202.4662935999222,202.96800250001252,202.4662935999222,203.48375249980018,202.96800250001252,203.46828329982236,203.46828329982236,204.5845428998582,1.0,-503149.521916,201.4659197666372,aly_new,90,1,0,34,1,2021_Feb_25_1252,testDotsStepRampPilot,2020.2.5,60.08275801952466,
44,0,44,0,None,None,None,None,205.6004337000195,206.10408899979666,205.6004337000195,206.62112379982136,206.10408899979666,206.6024247999303,206.6024247999303,207.72236789995804,0.0,-503146.386866,204.6012095665249,aly_new,90,1,0,34,1,2021_Feb_25_1252,testDotsStepRampPilot,2020.2.5,60.08275801952466,
45,0,45,0,None,None,None,None,208.7370767998509,209.23927919985726,208.7370767998509,209.75642089988105,209.23927919985726,209.74127349979244,209.74127349979244,210.85809909994714,0.0,-503143.249299,207.73903456662472,aly_new,90,1,0,34,1,2021_Feb_25_1252,testDotsStepRampPilot,2020.2.5,60.08275801952466,
46,0,46,0,None,None,None,None,211.87504919990897,212.37722679995932,211.87504919990897,212.8918184998911,212.37722679995932,212.87728379992768,212.87728379992768,213.9953257997986,1.0,-503140.113494,210.87476576661382,aly_new,90,1,0,34,1,2021_Feb_25_1252,testDotsStepRampPilot,2020.2.5,60.08275801952466,
47,0,47,0,None,None,None,None,215.0136590998154,215.51310719992034,215.0136590998154,216.03062510001473,215.51310719992034,216.0129577999469,216.0129577999469,217.13132729986683,1.0,-503136.975376,214.01199246646527,aly_new,90,1,0,34,1,2021_Feb_25_1252,testDotsStepRampPilot,2020.2.5,60.08275801952466,
48,0,48,0,None,None,None,None,218.1498777999077,218.65024579991587,218.1498777999077,219.16513999993913,218.65024579991587,219.15030719991773,219.15030719991773,220.26737799984403,0.0,-503133.839359,217.1479939665335,aly_new,90,1,0,34,1,2021_Feb_25_1252,testDotsStepRampPilot,2020.2.5,60.08275801952466,
49,0,49,0,None,None,None,None,221.28435349999927,221.78600530000404,221.28435349999927,222.30357139999978,221.78600530000404,222.2866619999986,222.2866619999986,223.4060829000082,0.0,-503130.703837,220.2840446665107,aly_new,90,1,0,34,1,2021_Feb_25_1252,testDotsStepRampPilot,2020.2.5,60.08275801952466,
50,0,50,0,None,None,None,None,224.42253430001438,224.9215657999739,224.42253430001438,225.44072249997407,224.9215657999739,225.42209699982777,225.42209699982777,226.54037019982934,0.0,-503127.56548,223.42274956667487,aly_new,90,1,0,34,1,2021_Feb_25_1252,testDotsStepRampPilot,2020.2.5,60.08275801952466,
51,0,51,0,None,None,None,None,227.55831889994442,228.05925349984318,227.55831889994442,228.57508039986715,228.05925349984318,228.55997790000401,228.55997790000401,229.67809950001538,1.0,-503124.430279,226.55703686649602,aly_new,90,1,0,34,1,2021_Feb_25_1252,testDotsStepRampPilot,2020.2.5,60.08275801952466,
52,0,52,0,None,None,None,None,230.69792669988237,231.21283209999092,230.69792669988237,231.74629899999127,231.21283209999092,231.72837079991587,231.72837079991587,232.84727879986167,0.0,-503121.290488,229.69476616668206,aly_new,90,1,0,34,1,2021_Feb_25_1252,testDotsStepRampPilot,2020.2.5,60.08275801952466,
53,0,53,0,None,None,None,None,233.86490960000083,234.36600309982896,233.86490960000083,234.88248659996316,234.36600309982896,234.86631680000573,234.86631680000573,235.98199789994396,0.0,-503118.123455,232.86394546652835,aly_new,90,1,0,34,1,2021_Feb_25_1252,testDotsStepRampPilot,2020.2.5,60.08275801952466,
54,0,54,0,None,None,None,None,236.999585499987,237.50189169985242,236.999585499987,238.01971869985573,237.50189169985242,238.00183809990995,238.00183809990995,239.12069809995592,0.0,-503114.988948,235.99866456661064,aly_new,90,1,0,34,1,2021_Feb_25_1252,testDotsStepRampPilot,2020.2.5,60.08275801952466,
55,0,55,0,None,None,None,None,240.1357093998231,240.6388161999639,240.1357093998231,241.15510139986873,240.6388161999639,241.1390632998664,241.1390632998664,242.25673369993456,1.0,-503111.850718,239.1373647666226,aly_new,90,1,0,34,1,2021_Feb_25_1252,testDotsStepRampPilot,2020.2.5,60.08275801952466,
56,0,56,0,None,None,None,None,243.27313899993896,243.77476589987054,243.27313899993896,244.29099819995463,243.77476589987054,244.27493459987454,244.27493459987454,245.39382899994962,1.0,-503108.714116,242.27340036660124,aly_new,90,1,0,34,1,2021_Feb_25_1252,testDotsStepRampPilot,2020.2.5,60.08275801952466,
57,0,57,0,None,None,None,None,246.4126645999495,246.92889359989204,246.4126645999495,247.4621834999416,246.92889359989204,247.44397919997573,247.44397919997573,248.56242909980938,0.0,-503105.575342,245.4104956666163,aly_new,90,1,0,34,1,2021_Feb_25_1252,testDotsStepRampPilot,2020.2.5,60.08275801952466,
58,0,58,0,None,None,None,None,249.57896879990585,250.08120589982718,249.57896879990585,250.59781109984033,250.08120589982718,250.58211590000428,250.58211590000428,251.69853209983557,1.0,-503102.408896,248.57909576647606,aly_new,90,1,0,34,1,2021_Feb_25_1252,testDotsStepRampPilot,2020.2.5,60.08275801952466,
59,0,59,0,None,None,None,None,252.71553259994835,253.217512199888,252.71553259994835,253.73491689981893,253.217512199888,253.71626319992356,253.71626319992356,254.83592859981582,1.0,-503099.272426,251.71519876650225,aly_new,90,1,0,34,1,2021_Feb_25_1252,testDotsStepRampPilot,2020.2.5,60.08275801952466,
60,0,60,0,None,None,None,None,255.8527344998438,256.3540687998757,255.8527344998438,256.8714393998962,256.3540687998757,256.85508589982055,256.85508589982055,257.9717378998175,0.0,-503096.135739,254.8525952664825,aly_new,90,1,0,34,1,2021_Feb_25_1252,testDotsStepRampPilot,2020.2.5,60.08275801952466,
61,0,61,0,None,None,None,None,258.99044429999776,259.5060688999947,258.99044429999776,260.02369809988886,259.5060688999947,260.00658049993217,260.00658049993217,261.1255189999938,1.0,-503092.998829,257.9884045664842,aly_new,90,1,0,34,1,2021_Feb_25_1252,testDotsStepRampPilot,2020.2.5,60.08275801952466,
62,0,62,0,None,None,None,None,262.14451399981044,262.65869219996966,262.14451399981044,263.1779505999293,262.65869219996966,263.1600943999365,263.1600943999365,264.278366799932,0.0,-503089.845202,261.14218566666045,aly_new,90,1,0,34,1,2021_Feb_25_1252,testDotsStepRampPilot,2020.2.5,60.08275801952466,
63,0,63,0,None,None,None,None,265.2972352998331,265.81299429992214,265.2972352998331,266.3307770998217,265.81299429992214,266.31194769986905,266.31194769986905,267.4317824000027,0.0,-503086.692266,264.2950334665986,aly_new,90,1,0,34,1,2021_Feb_25_1252,testDotsStepRampPilot,2020.2.5,60.08275801952466,
64,0,64,0,None,None,None,None,268.4483351998497,268.95058649987914,268.4483351998497,269.4665337000042,268.95058649987914,269.45064409985207,269.45064409985207,270.5669627999887,1.0,-503083.539028,267.44844906666935,aly_new,90,1,0,34,1,2021_Feb_25_1252,testDotsStepRampPilot,2020.2.5,60.08275801952466,
65,0,65,0,None,None,None,None,271.58497079997323,272.0864396998659,271.58497079997323,272.60405129985884,272.0864396998659,272.5861886998173,272.5861886998173,273.7053898999002,0.0,-503080.403799,270.58362946665534,aly_new,90,1,0,34,1,2021_Feb_25_1252,testDotsStepRampPilot,2020.2.5,60.08275801952466,
66,0,66,0,None,None,None,None,274.72307910001837,275.22194229997694,274.72307910001837,275.7399841998704,275.22194229997694,275.7215015999973,275.7215015999973,276.8399443998933,1.0,-503077.265595,273.72205656656683,aly_new,90,1,0,34,1,2021_Feb_25_1252,testDotsStepRampPilot,2020.2.5,60.08275801952466,
67,0,67,0,None,None,None,None,277.8594533998985,278.35939679993317,277.8594533998985,278.8744663000107,278.35939679993317,278.85990619985387,278.85990619985387,279.97832609992474,0.0,-503074.130748,276.85661106655994,aly_new,90,1,0,34,1,2021_Feb_25_1252,testDotsStepRampPilot,2020.2.5,60.08275801952466,
68,0,68,0,279.9972120998427,304.88543269992806,304.88543269992806,308.8821278999094,308.8821278999094,309.3905560998246,308.8821278999094,309.9245339999907,309.3905560998246,309.9063456999138,309.9063456999138,311.0244940998964,1.0,-503070.990558,279.9949927665914,aly_new,90,1,0,34,1,2021_Feb_25_1252,testDotsStepRampPilot,2020.2.5,60.08275801952466,
69,0,69,0,None,None,None,None,312.0417280998081,312.5438484000042,312.0417280998081,313.05981949996203,312.5438484000042,313.0456055998802,313.0456055998802,314.1606011998374,1.0,-503039.946176,311.04116076656305,aly_new,90,1,0,34,1,2021_Feb_25_1252,testDotsStepRampPilot,2020.2.5,60.08275801952466,
70,0,70,0,None,None,None,None,315.1780726998113,315.6795857998077,315.1780726998113,316.19760079984553,315.6795857998077,316.1790393998381,316.1790393998381,317.2984366999008,1.0,-503036.809658,314.17726786650405,aly_new,90,1,0,34,1,2021_Feb_25_1252,testDotsStepRampPilot,2020.2.5,60.08275801952466,
71,0,71,0,None,None,None,None,318.31378440000117,318.8170001998078,318.31378440000117,319.33228219999,318.8170001998078,319.317237299867,319.317237299867,320.4339046999812,1.0,-503033.673134,317.3151033665674,aly_new,90,1,0,34,1,2021_Feb_25_1252,testDotsStepRampPilot,2020.2.5,60.08275801952466,
72,0,72,0,None,None,None,None,321.4512478997931,321.95402830000967,321.4512478997931,322.4712839999702,321.95402830000967,322.45309540000744,322.45309540000744,323.57139179995283,1.0,-503030.537162,320.45057136664786,aly_new,90,1,0,34,1,2021_Feb_25_1252,testDotsStepRampPilot,2020.2.5,60.08275801952466,
73,0,73,0,None,None,None,None,324.590235499898,325.0883753998205,324.590235499898,325.60754639981315,325.0883753998205,325.5880602998659,325.5880602998659,326.70757359988056,0.0,-503027.398659,323.5880584666195,aly_new,90,1,0,34,1,2021_Feb_25_1252,testDotsStepRampPilot,2020.2.5,60.08275801952466,
74,0,74,0,None,None,None,None,327.7268498998601,328.24156069988385,327.7268498998601,328.7600294998847,328.24156069988385,328.74215549998917,328.74215549998917,329.86128529999405,0.0,-503024.263076,326.7242402665472,aly_new,90,1,0,34,1,2021_Feb_25_1252,testDotsStepRampPilot,2020.2.5,60.08275801952466,
75,0,75,0,None,None,None,None,330.87734179990366,331.379637299804,330.87734179990366,331.89430359983817,331.379637299804,331.8797349999659,331.8797349999659,332.99632959999144,0.0,-503021.110003,329.8779519666607,aly_new,90,1,0,34,1,2021_Feb_25_1252,testDotsStepRampPilot,2020.2.5,60.08275801952466,
76,0,76,0,None,None,None,None,334.0128275998868,334.51508359983563,334.0128275998868,335.03424459998496,334.51508359983563,335.0157128998544,335.0157128998544,336.13439619983546,0.0,-503017.975088,333.0129962666581,aly_new,90,1,0,34,1,2021_Feb_25_1252,testDotsStepRampPilot,2020.2.5,60.08275801952466,
77,0,77,0,None,None,None,None,337.1507711999584,337.6511274999939,337.1507711999584,338.1691896999255,337.6511274999939,338.1531165998895,338.1531165998895,339.26928549981676,0.0,-503014.83692,336.1510628665021,aly_new,90,1,0,34,1,2021_Feb_25_1252,testDotsStepRampPilot,2020.2.5,60.08275801952466,
78,0,78,0,None,None,None,None,340.2871291998308,340.78919639997184,340.2871291998308,341.32158119999804,340.78919639997184,341.30366440000944,341.30366440000944,342.4229281998705,1.0,-503011.701332,339.2859521664834,aly_new,90,1,0,34,1,2021_Feb_25_1252,testDotsStepRampPilot,2020.2.5,60.08275801952466,
79,0,79,0,None,None,None,None,343.43979809992015,343.9421527998056,343.43979809992015,344.45707009988837,343.9421527998056,344.4425201998092,344.4425201998092,345.55855169985443,1.0,-503008.547934,342.43959486653716,aly_new,90,1,0,34,1,2021_Feb_25_1252,testDotsStepRampPilot,2020.2.5,60.08275801952466,
80,0,80,0,None,None,None,None,346.57808569981717,347.07816129992716,346.57808569981717,347.59537799982354,347.07816129992716,347.57825449993834,347.57825449993834,348.6971201999113,1.0,-503005.410616,345.5752183665211,aly_new,90,1,0,34,1,2021_Feb_25_1252,testDotsStepRampPilot,2020.2.5,60.08275801952466,
81,0,81,0,None,None,None,None,349.7126739998348,350.2151404998731,349.7126739998348,350.7312468998134,350.2151404998731,350.7168669998646,350.7168669998646,351.8326661000028,0.0,-503002.274389,348.71378686657795,aly_new,90,1,0,34,1,2021_Feb_25_1252,testDotsStepRampPilot,2020.2.5,60.08275801952466,
82,0,82,0,None,None,None,None,352.8517264998518,353.3508361999411,352.8517264998518,353.8686911999248,353.3508361999411,353.85316049982794,353.85316049982794,354.9694974999875,1.0,-502999.137868,351.8493327666695,aly_new,90,1,0,34,1,2021_Feb_25_1252,testDotsStepRampPilot,2020.2.5,60.08275801952466,
83,0,83,0,None,None,None,None,355.98479369981214,356.48672769987024,355.98479369981214,357.00522459996864,356.48672769987024,356.9865629998967,356.9865629998967,358.10443449998274,0.0,-502996.001907,354.98616416665413,aly_new,90,1,0,34,1,2021_Feb_25_1252,testDotsStepRampPilot,2020.2.5,60.08275801952466,
84,0,84,0,None,None,None,None,359.12262549996376,359.6245230999775,359.12262549996376,360.1584333998617,359.6245230999775,360.13934389990754,360.13934389990754,361.25899289990775,1.0,-502992.866047,358.1211011666494,aly_new,90,1,0,34,1,2021_Feb_25_1252,testDotsStepRampPilot,2020.2.5,60.08275801952466,
85,0,85,0,None,None,None,None,362.2772857998498,362.77758959983476,362.2772857998498,363.31101519986987,362.77758959983476,363.29329869989306,363.29329869989306,364.41263499995694,1.0,-502989.711995,361.2756595665744,aly_new,90,1,0,34,1,2021_Feb_25_1252,testDotsStepRampPilot,2020.2.5,60.08275801952466,
86,0,86,0,None,None,None,None,365.4311471998226,365.93046089983545,365.4311471998226,366.4468375998549,365.93046089983545,366.43159309984185,366.43159309984185,367.5474882000126,0.0,-502986.557971,364.4293016666236,aly_new,90,1,0,34,1,2021_Feb_25_1252,testDotsStepRampPilot,2020.2.5,60.08275801952466,
87,0,87,0,None,None,None,None,368.56636890000664,369.066508699907,368.56636890000664,369.5851609997917,369.066508699907,369.5667955998797,369.5667955998797,370.6852958998643,1.0,-502983.423563,367.56415486667925,aly_new,90,1,0,34,1,2021_Feb_25_1252,testDotsStepRampPilot,2020.2.5,60.08275801952466,
88,0,88,0,None,None,None,None,371.69960329984315,372.20195979997516,371.69960329984315,372.72127499990165,372.20195979997516,372.7027590998914,372.7027590998914,373.82148229982704,0.0,-502980.28614,370.70196256653094,aly_new,90,1,0,34,1,2021_Feb_25_1252,testDotsStepRampPilot,2020.2.5,60.08275801952466,
89,0,89,0,None,None,None,None,374.8381912999321,375.3397660998162,374.8381912999321,375.85556589998305,375.3397660998162,375.8404325998854,375.8404325998854,376.9583905998152,0.0,-502977.149696,373.8381489664937,aly_new,90,1,0,34,1,2021_Feb_25_1252,testDotsStepRampPilot,2020.2.5,60.08275801952466,
90,0,90,0,None,None,None,None,377.97601149999537,378.47585469996557,377.97601149999537,378.9934292999096,378.47585469996557,378.9756656999234,378.9756656999234,380.0950319999829,1.0,-502974.013014,376.9750572664818,aly_new,90,1,0,34,1,2021_Feb_25_1252,testDotsStepRampPilot,2020.2.5,60.08275801952466,
91,0,91,0,None,None,None,None,381.11315250000916,381.61298789992,381.11315250000916,382.1465536998585,381.61298789992,382.1298487999011,382.1298487999011,383.2482056999579,1.0,-502970.875925,380.11169866664954,aly_new,90,1,0,34,1,2021_Feb_25_1252,testDotsStepRampPilot,2020.2.5,60.08275801952466,
92,0,92,0,None,None,None,None,384.2646391999442,384.7664414998144,384.2646391999442,385.29979949980043,384.7664414998144,385.28251939988695,385.28251939988695,386.40143959992565,0.0,-502967.723243,383.26487236662456,aly_new,90,1,0,34,1,2021_Feb_25_1252,testDotsStepRampPilot,2020.2.5,60.08275801952466,
93,0,93,0,None,None,None,None,387.41827719984576,387.9179220998194,387.41827719984576,388.4367223000154,387.9179220998194,388.41842160001397,388.41842160001397,389.53717099991627,0.0,-502964.569247,386.4181062665923,aly_new,90,1,0,34,1,2021_Feb_25_1252,testDotsStepRampPilot,2020.2.5,60.08275801952466,
94,0,94,0,None,None,None,None,390.5566775999032,391.0711219999939,390.5566775999032,391.5893937998917,391.0711219999939,391.5724474999588,391.5724474999588,392.6901176997926,0.0,-502961.433659,389.5538376665829,aly_new,90,1,0,34,1,2021_Feb_25_1252,testDotsStepRampPilot,2020.2.5,60.08275801952466,
95,0,95,0,None,None,None,None,393.70892090001144,394.2247482999228,393.70892090001144,394.7425825998653,394.2247482999228,394.7250504998956,394.7250504998956,395.8441504999064,1.0,-502958.280959,392.70678436645926,aly_new,90,1,0,34,1,2021_Feb_25_1252,testDotsStepRampPilot,2020.2.5,60.08275801952466,
96,0,96,0,None,None,None,None,396.8618617998436,397.3622736998368,396.8618617998436,397.8778658998199,397.3622736998368,397.8623396998737,397.8623396998737,398.97894699987955,0.0,-502955.127166,395.86081716657304,aly_new,90,1,0,34,1,2021_Feb_25_1252,testDotsStepRampPilot,2020.2.5,60.08275801952466,
97,0,97,0,None,None,None,None,399.99772949982435,400.49794319993816,399.99772949982435,401.0163177999202,400.49794319993816,400.998949999921,400.998949999921,402.1167198999319,1.0,-502951.991698,398.9956136665462,aly_new,90,1,0,34,1,2021_Feb_25_1252,testDotsStepRampPilot,2020.2.5,60.08275801952466,
98,0,98,0,None,None,None,None,403.1329270999413,403.63285729987547,403.1329270999413,404.15303129982203,403.63285729987547,404.13400999992155,404.13400999992155,405.2525511998683,1.0,-502948.854391,402.1333865665986,aly_new,90,1,0,34,1,2021_Feb_25_1252,testDotsStepRampPilot,2020.2.5,60.08275801952466,
99,0,99,0,None,None,None,None,406.26994009991176,406.7713386998512,406.26994009991176,407.28730540000834,406.7713386998512,407.2722081998363,407.2722081998363,408.3906350999605,0.0,-502945.718729,405.269217866535,aly_new,90,1,0,34,1,2021_Feb_25_1252,testDotsStepRampPilot,2020.2.5,60.08275801952466,
