trials.thisRepN,trials.thisTrialN,trials.thisN,trials.thisIndex,break_text.started,break_text.stopped,postbreak_text.started,postbreak_text.stopped,fixation1.started,fixation1.stopped,red_dot.started,red_dot.stopped,fixation2.started,fixation2.stopped,pursuit_or_saccade_dot.started,pursuit_or_saccade_dot.stopped,pursuit_saccade_isLeft,pupil_timestamp,psychopy_timestamp,participant,trials_per_condition,pursuit_or_saccade,practice_version,break_every_n_trials,pupil_on,date,expName,psychopyVersion,frameRate,
0,0,0,0,None,None,None,None,21.36628199997358,21.870140600018203,21.36628199997358,22.38643559999764,21.870140600018203,22.37002109992318,22.37002109992318,23.553771100006998,0.0,-504969.603258,20.33386035976,regan_18_final,90,1,0,34,1,2021_Feb_25_1224,testDotsStepRampPilot,2020.2.5,59.92951086095656,
1,0,1,0,None,None,None,None,24.57112139998935,25.072694799862802,24.57112139998935,25.590684699825943,25.072694799862802,25.57273369980976,25.57273369980976,26.757845799904317,1.0,-504966.373481,23.570447569992393,regan_18_final,90,1,0,34,1,2021_Feb_25_1224,testDotsStepRampPilot,2020.2.5,59.92951086095656,
2,0,2,0,None,None,None,None,27.773893599864095,28.2767925998196,27.773893599864095,28.793540599988773,28.2767925998196,28.776264999993145,28.776264999993145,29.96011869981885,0.0,-504963.16962,26.77452226988971,regan_18_final,90,1,0,34,1,2021_Feb_25_1224,testDotsStepRampPilot,2020.2.5,59.92951086095656,
3,0,3,0,None,None,None,None,30.977238199906424,31.48045689985156,30.977238199906424,32.01460270001553,31.48045689985156,31.998819299973547,31.998819299973547,33.18085589981638,0.0,-504959.968123,29.976795169804245,regan_18_final,90,1,0,34,1,2021_Feb_25_1224,testDotsStepRampPilot,2020.2.5,59.92951086095656,
4,0,4,0,None,None,None,None,34.19582789996639,34.70266539999284,34.19582789996639,35.219309699954465,34.70266539999284,35.201290800003335,35.201290800003335,36.385091099888086,0.0,-504956.747578,33.19753236980178,regan_18_final,90,1,0,34,1,2021_Feb_25_1224,testDotsStepRampPilot,2020.2.5,59.92951086095656,
5,0,5,0,None,None,None,None,37.40613879985176,37.920675799949095,37.40613879985176,38.435433599865064,37.920675799949095,38.421285199932754,38.421285199932754,39.60443459986709,1.0,-504953.538557,36.401767569873485,regan_18_final,90,1,0,34,1,2021_Feb_25_1224,testDotsStepRampPilot,2020.2.5,59.92951086095656,
6,0,6,0,None,None,None,None,40.62241449998692,41.12527800002135,40.62241449998692,41.658681999891996,41.12527800002135,41.63949440000579,41.63949440000579,42.82602949999273,1.0,-504950.323573,39.62111106985249,regan_18_final,90,1,0,34,1,2021_Feb_25_1224,testDotsStepRampPilot,2020.2.5,59.92951086095656,
7,0,7,0,None,None,None,None,43.84529919992201,44.34336719987914,43.84529919992201,44.86126159993,44.34336719987914,44.84541819989681,44.84541819989681,46.029267199803144,1.0,-504947.101928,42.84270596997813,regan_18_final,90,1,0,34,1,2021_Feb_25_1224,testDotsStepRampPilot,2020.2.5,59.92951086095656,
8,0,8,0,None,None,None,None,47.04820359987207,47.565443499945104,47.04820359987207,48.08246329985559,47.565443499945104,48.065400999970734,48.065400999970734,49.24997160001658,1.0,-504943.898423,46.04594366978854,regan_18_final,90,1,0,34,1,2021_Feb_25_1224,testDotsStepRampPilot,2020.2.5,59.92951086095656,
9,0,9,0,None,None,None,None,50.26610259991139,50.76568389986642,50.26610259991139,51.28266119980253,50.76568389986642,51.2684284998104,51.2684284998104,52.452708299970254,1.0,-504940.67819,49.26664807000198,regan_18_final,90,1,0,34,1,2021_Feb_25_1224,testDotsStepRampPilot,2020.2.5,59.92951086095656,
10,0,10,0,None,None,None,None,53.46929519996047,53.97039409982972,53.46929519996047,54.50385749991983,53.97039409982972,54.485591899836436,54.485591899836436,55.67309159995057,1.0,-504937.475144,52.46938476995565,regan_18_final,90,1,0,34,1,2021_Feb_25_1224,testDotsStepRampPilot,2020.2.5,59.92951086095656,
11,0,11,0,None,None,None,None,56.68907359987497,57.19006579997949,56.68907359987497,57.72206369997002,57.19006579997949,57.707048299955204,57.707048299955204,58.89137249998748,0.0,-504934.255131,55.689768069935965,regan_18_final,90,1,0,34,1,2021_Feb_25_1224,testDotsStepRampPilot,2020.2.5,59.92951086095656,
12,0,12,0,None,None,None,None,59.90858539985493,60.40974499983713,59.90858539985493,60.94365049991757,60.40974499983713,60.92633129982278,60.92633129982278,62.11137709999457,0.0,-504931.036231,58.90804896997288,regan_18_final,90,1,0,34,1,2021_Feb_25_1224,testDotsStepRampPilot,2020.2.5,59.92951086095656,
13,0,13,0,None,None,None,None,63.12752029998228,63.62994909984991,63.12752029998228,64.14704769989476,63.62994909984991,64.13010199996643,64.13010199996643,65.3129255999811,1.0,-504927.816268,62.12805356997997,regan_18_final,90,1,0,34,1,2021_Feb_25_1224,testDotsStepRampPilot,2020.2.5,59.92951086095656,
14,0,14,0,None,None,None,None,66.33184459991753,66.83337539993227,66.33184459991753,67.34995229984634,66.83337539993227,67.33131929999217,67.33131929999217,68.51796439988539,1.0,-504924.614954,65.3296020699665,regan_18_final,90,1,0,34,1,2021_Feb_25_1224,testDotsStepRampPilot,2020.2.5,59.92951086095656,
15,0,15,0,None,None,None,None,69.53385329991579,70.03655679989606,69.53385329991579,70.55327119980939,70.03655679989606,70.53618309996091,70.53618309996091,71.7218755998183,0.0,-504921.410078,68.53464086987078,regan_18_final,90,1,0,34,1,2021_Feb_25_1224,testDotsStepRampPilot,2020.2.5,59.92951086095656,
16,0,16,0,None,None,None,None,72.73806330002844,73.23913999996148,72.73806330002844,73.7563855999615,73.23913999996148,73.73955799988471,73.73955799988471,74.92393079982139,0.0,-504918.205955,71.7385520698037,regan_18_final,90,1,0,34,1,2021_Feb_25_1224,testDotsStepRampPilot,2020.2.5,59.92951086095656,
17,0,17,0,None,None,None,None,75.94337799982168,76.44323909981176,75.94337799982168,76.95968839991838,76.44323909981176,76.94240229995921,76.94240229995921,78.12729509989731,0.0,-504915.0026,74.94060726980679,regan_18_final,90,1,0,34,1,2021_Feb_25_1224,testDotsStepRampPilot,2020.2.5,59.92951086095656,
18,0,18,0,None,None,None,None,79.1446614000015,79.64590529981069,79.1446614000015,80.16307389992289,79.64590529981069,80.14665060001425,80.14665060001425,81.33006059983745,1.0,-504911.800331,78.14397156988271,regan_18_final,90,1,0,34,1,2021_Feb_25_1224,testDotsStepRampPilot,2020.2.5,59.92951086095656,
19,0,19,0,None,None,None,None,82.34776239981875,82.84951719990931,82.34776239981875,83.36603809986264,82.84951719990931,83.34940319997258,83.34940319997258,84.53587219980545,1.0,-504908.59738,81.34673706982285,regan_18_final,90,1,0,34,1,2021_Feb_25_1224,testDotsStepRampPilot,2020.2.5,59.92951086095656,
20,0,20,0,None,None,None,None,85.55162339983508,86.0517177998554,85.55162339983508,86.56987899984233,86.0517177998554,86.55171329993755,86.55171329993755,87.73678299994208,1.0,-504905.391315,84.55254866979085,regan_18_final,90,1,0,34,1,2021_Feb_25_1224,testDotsStepRampPilot,2020.2.5,59.92951086095656,
21,0,21,0,None,None,None,None,88.75378739996813,89.25557829998434,88.75378739996813,89.77186219999567,89.25557829998434,89.75584469991736,89.75584469991736,90.93901049997658,1.0,-504902.190906,87.75345946992748,regan_18_final,90,1,0,34,1,2021_Feb_25_1224,testDotsStepRampPilot,2020.2.5,59.92951086095656,
22,0,22,0,None,None,None,None,91.9571936998982,92.4594947998412,91.9571936998982,92.97554959985428,92.4594947998412,92.9591039000079,92.9591039000079,94.14580369996838,0.0,-504898.987702,90.95568696996197,regan_18_final,90,1,0,34,1,2021_Feb_25_1224,testDotsStepRampPilot,2020.2.5,59.92951086095656,
23,0,23,0,None,None,None,None,95.16112139984034,95.66348559991457,95.16112139984034,96.19623339991085,95.66348559991457,96.1777694998309,96.1777694998309,97.36332829995081,1.0,-504895.781855,94.16248016995378,regan_18_final,90,1,0,34,1,2021_Feb_25_1224,testDotsStepRampPilot,2020.2.5,59.92951086095656,
24,0,24,0,None,None,None,None,98.38076739991084,98.88034399994649,98.38076739991084,99.39932690002024,98.88034399994649,99.38099469989538,99.38099469989538,100.56433179997839,0.0,-504892.565042,97.3800047699362,regan_18_final,90,1,0,34,1,2021_Feb_25_1224,testDotsStepRampPilot,2020.2.5,59.92951086095656,
25,0,25,0,None,None,None,None,101.58239139989018,102.08364719990641,101.58239139989018,102.60319259995595,102.08364719990641,102.5831857000012,102.5831857000012,103.76986979995854,1.0,-504889.364093,100.58100826996379,regan_18_final,90,1,0,34,1,2021_Feb_25_1224,testDotsStepRampPilot,2020.2.5,59.92951086095656,
26,0,26,0,None,None,None,None,104.7866557999514,105.28760979999788,104.7866557999514,105.80582010000944,105.28760979999788,105.78878339985386,105.78878339985386,106.97241940000094,1.0,-504886.15782,103.78654626994394,regan_18_final,90,1,0,34,1,2021_Feb_25_1224,testDotsStepRampPilot,2020.2.5,59.92951086095656,
27,0,27,0,None,None,None,None,107.98982559982687,108.49123259983025,107.98982559982687,109.02531699999236,108.49123259983025,109.00776019995101,109.00776019995101,110.19497209996916,1.0,-504882.956009,106.98909586998634,regan_18_final,90,1,0,34,1,2021_Feb_25_1224,testDotsStepRampPilot,2020.2.5,59.92951086095656,
28,0,28,0,None,None,None,None,111.21095500001684,111.71106829983182,111.21095500001684,112.23017639992759,111.71106829983182,112.2116556998808,112.2116556998808,113.39647249993868,0.0,-504879.732569,110.21164856995456,regan_18_final,90,1,0,34,1,2021_Feb_25_1224,testDotsStepRampPilot,2020.2.5,59.92951086095656,
29,0,29,0,None,None,None,None,114.41407189983875,114.91478389990516,114.41407189983875,115.43140330002643,114.91478389990516,115.41535779996775,115.41535779996775,116.59940989990719,0.0,-504876.53122,113.41314896992408,regan_18_final,90,1,0,34,1,2021_Feb_25_1224,testDotsStepRampPilot,2020.2.5,59.92951086095656,
30,0,30,0,None,None,None,None,117.61788039980456,118.11643149983138,117.61788039980456,118.63575769984163,118.11643149983138,118.61932559986599,118.61932559986599,119.80283479997888,0.0,-504873.328067,116.61608636989259,regan_18_final,90,1,0,34,1,2021_Feb_25_1224,testDotsStepRampPilot,2020.2.5,59.92951086095656,
31,0,31,0,None,None,None,None,120.81961919995956,121.32118029985577,120.81961919995956,121.83803129987791,121.32118029985577,121.82085569994524,121.82085569994524,123.00582690001465,0.0,-504870.125151,119.81951126996428,regan_18_final,90,1,0,34,1,2021_Feb_25_1224,testDotsStepRampPilot,2020.2.5,59.92951086095656,
32,0,32,0,None,None,None,None,124.02271960000508,124.52323869988322,124.02271960000508,125.04210889991373,124.52323869988322,125.023830199847,125.023830199847,126.20913399988785,1.0,-504866.921995,123.02250337000005,regan_18_final,90,1,0,34,1,2021_Feb_25_1224,testDotsStepRampPilot,2020.2.5,59.92951086095656,
33,0,33,0,None,None,None,None,127.2277455998119,127.74133999994956,127.2277455998119,128.25901209982112,127.74133999994956,128.24356659990735,128.24356659990735,129.42749089980498,1.0,-504863.718433,126.22581046987325,regan_18_final,90,1,0,34,1,2021_Feb_25_1224,testDotsStepRampPilot,2020.2.5,59.92951086095656,
34,0,34,0,129.44763699988835,153.76829949999228,153.76829949999228,157.76597819989547,157.76597819989547,158.27277129981667,157.76597819989547,158.79008459998295,158.27277129981667,158.77244129986502,158.77244129986502,159.957764999941,0.0,-504860.50001,129.44416736979036,regan_18_final,90,1,0,34,1,2021_Feb_25_1224,testDotsStepRampPilot,2020.2.5,59.92951086095656,
35,0,35,0,None,None,None,None,160.97380359983072,161.47674499987625,160.97380359983072,161.9935700998176,161.47674499987625,161.97701209993102,161.97701209993102,163.16032839985564,0.0,-504829.970327,159.97444146992638,regan_18_final,90,1,0,34,1,2021_Feb_25_1224,testDotsStepRampPilot,2020.2.5,59.92951086095656,
36,0,36,0,None,None,None,None,164.17809309996665,164.6787640999537,164.17809309996665,165.19855359988287,164.6787640999537,165.18017089995556,165.18017089995556,166.36422239989042,0.0,-504826.767637,163.17700486984103,regan_18_final,90,1,0,34,1,2021_Feb_25_1224,testDotsStepRampPilot,2020.2.5,59.92951086095656,
37,0,37,0,None,None,None,None,167.38005139981396,167.8822817998007,167.38005139981396,168.40053039998747,167.8822817998007,168.3833541998174,168.3833541998174,169.56702760001644,1.0,-504823.563461,166.3808988698758,regan_18_final,90,1,0,34,1,2021_Feb_25_1224,testDotsStepRampPilot,2020.2.5,59.92951086095656,
38,0,38,0,None,None,None,None,170.58409539982677,171.08668840001337,170.58409539982677,171.62051819986664,171.08668840001337,171.60303499992006,171.60303499992006,172.78765539987944,1.0,-504820.360911,169.58370407000183,regan_18_final,90,1,0,34,1,2021_Feb_25_1224,testDotsStepRampPilot,2020.2.5,59.92951086095656,
39,0,39,0,None,None,None,None,173.8041037998628,174.30629660002887,173.8041037998628,174.82197129982524,174.30629660002887,174.80670359986834,174.80670359986834,175.99249939993024,0.0,-504817.140831,172.80433186986482,regan_18_final,90,1,0,34,1,2021_Feb_25_1224,testDotsStepRampPilot,2020.2.5,59.92951086095656,
40,0,40,0,None,None,None,None,177.01020609983243,177.5080275000073,177.01020609983243,178.0258843000047,177.5080275000073,178.009785000002,178.009785000002,179.19429439981468,0.0,-504813.934448,176.00917586991562,regan_18_final,90,1,0,34,1,2021_Feb_25_1224,testDotsStepRampPilot,2020.2.5,59.92951086095656,
41,0,41,0,None,None,None,None,180.21143479994498,180.71280709980056,180.21143479994498,181.22846749983728,180.71280709980056,181.2131306999363,181.2131306999363,182.39635870000347,1.0,-504810.734118,179.21097086980006,regan_18_final,90,1,0,34,1,2021_Feb_25_1224,testDotsStepRampPilot,2020.2.5,59.92951086095656,
42,0,42,0,None,None,None,None,183.41318989987485,183.91616120003164,183.41318989987485,184.43428149982356,183.91616120003164,184.41607399983332,184.41607399983332,185.60059369984083,1.0,-504807.531946,182.41303516998886,regan_18_final,90,1,0,34,1,2021_Feb_25_1224,testDotsStepRampPilot,2020.2.5,59.92951086095656,
43,0,43,0,None,None,None,None,186.61640219995752,187.11809320002794,186.61640219995752,187.6358304999303,187.11809320002794,187.6184831999708,187.6184831999708,188.80374509980902,1.0,-504804.327109,185.6172701698262,regan_18_final,90,1,0,34,1,2021_Feb_25_1224,testDotsStepRampPilot,2020.2.5,59.92951086095656,
44,0,44,0,None,None,None,None,189.8218614999205,190.32138819992542,189.8218614999205,190.8380276998505,190.32138819992542,190.82252619997598,190.82252619997598,192.00773499999195,0.0,-504801.123764,188.8204215697944,regan_18_final,90,1,0,34,1,2021_Feb_25_1224,testDotsStepRampPilot,2020.2.5,59.92951086095656,
45,0,45,0,None,None,None,None,193.02599380002357,193.52401579986326,193.02599380002357,194.04266019980423,193.52401579986326,194.02472039987333,194.02472039987333,195.21024319995195,1.0,-504797.918375,192.02441146997734,regan_18_final,90,1,0,34,1,2021_Feb_25_1224,testDotsStepRampPilot,2020.2.5,59.92951086095656,
46,0,46,0,None,None,None,None,196.22789809992537,196.72846749983728,196.22789809992537,197.24518610001542,196.72846749983728,197.22799019981176,197.22799019981176,198.41240599984303,1.0,-504794.718012,195.22691966993733,regan_18_final,90,1,0,34,1,2021_Feb_25_1224,testDotsStepRampPilot,2020.2.5,59.92951086095656,
47,0,47,0,None,None,None,None,199.4288093999494,199.93129969993606,199.4288093999494,200.44905889988877,199.93129969993606,200.4320084999781,200.4320084999781,201.616601199843,1.0,-504791.516094,198.42908246982842,regan_18_final,90,1,0,34,1,2021_Feb_25_1224,testDotsStepRampPilot,2020.2.5,59.92951086095656,
48,0,48,0,None,None,None,None,202.63300169981085,203.13512460002676,202.63300169981085,203.65257439995185,203.13512460002676,203.63600159995258,203.63600159995258,204.819406399969,0.0,-504788.311035,201.63327766982837,regan_18_final,90,1,0,34,1,2021_Feb_25_1224,testDotsStepRampPilot,2020.2.5,59.92951086095656,
49,0,49,0,None,None,None,None,205.83653380000032,206.33693819982,205.83653380000032,206.85578259988688,206.33693819982,206.8393417999614,206.8393417999614,208.0236495998688,0.0,-504785.108693,204.8360828699544,regan_18_final,90,1,0,34,1,2021_Feb_25_1224,testDotsStepRampPilot,2020.2.5,59.92951086095656,
50,0,50,0,None,None,None,None,209.04001859994605,209.54050469980575,209.04001859994605,210.05796299991198,209.54050469980575,210.04075949988328,210.04075949988328,211.22607959993184,1.0,-504781.903748,208.0403260698542,regan_18_final,90,1,0,34,1,2021_Feb_25_1224,testDotsStepRampPilot,2020.2.5,59.92951086095656,
51,0,51,0,None,None,None,None,212.2424425999634,212.74377569998614,212.2424425999634,213.26244249986485,212.74377569998614,213.24644729983993,213.24644729983993,214.4306154998485,0.0,-504778.702034,211.24275606991722,regan_18_final,90,1,0,34,1,2021_Feb_25_1224,testDotsStepRampPilot,2020.2.5,59.92951086095656,
52,0,52,0,None,None,None,None,215.4488750998862,215.96454690000974,215.4488750998862,216.48067889991216,215.96454690000974,216.4645038000308,216.4645038000308,217.6489838999696,1.0,-504775.497033,214.44729196983388,regan_18_final,90,1,0,34,1,2021_Feb_25_1224,testDotsStepRampPilot,2020.2.5,59.92951086095656,
53,0,53,0,None,None,None,None,218.66516939993016,219.1684925998561,218.66516939993016,219.68494119984098,219.1684925998561,219.6685792999342,219.6685792999342,220.85295359999873,0.0,-504772.279113,217.665660369955,regan_18_final,90,1,0,34,1,2021_Feb_25_1224,testDotsStepRampPilot,2020.2.5,59.92951086095656,
54,0,54,0,None,None,None,None,221.86787560000084,222.37147309980355,221.86787560000084,222.88900189986452,222.37147309980355,222.87168739992194,222.87168739992194,224.05611220002174,1.0,-504769.075566,220.8696300699841,regan_18_final,90,1,0,34,1,2021_Feb_25_1224,testDotsStepRampPilot,2020.2.5,59.92951086095656,
55,0,55,0,None,None,None,None,225.07224899996072,225.57548609981313,225.07224899996072,226.09115589992143,225.57548609981313,226.0738181998022,226.0738181998022,227.25913050002418,0.0,-504765.872159,224.07278867000713,regan_18_final,90,1,0,34,1,2021_Feb_25_1224,testDotsStepRampPilot,2020.2.5,59.92951086095656,
56,0,56,0,None,None,None,None,228.27576459990814,228.77635609987192,228.27576459990814,229.29465129994787,228.77635609987192,229.2765448000282,229.2765448000282,230.46183960000053,1.0,-504762.669269,227.27580697000957,regan_18_final,90,1,0,34,1,2021_Feb_25_1224,testDotsStepRampPilot,2020.2.5,59.92951086095656,
57,0,57,0,None,None,None,None,231.4782516998239,231.98059379984625,231.4782516998239,232.49648859980516,231.98059379984625,232.48127089999616,232.48127089999616,233.6645814999938,1.0,-504759.46598,230.47851606998591,regan_18_final,90,1,0,34,1,2021_Feb_25_1224,testDotsStepRampPilot,2020.2.5,59.92951086095656,
58,0,58,0,None,None,None,None,234.68365160003304,235.1832671999,234.68365160003304,235.70096139982343,235.1832671999,235.68376169982366,235.68376169982366,236.8681617998518,1.0,-504756.262894,233.68125796997919,regan_18_final,90,1,0,34,1,2021_Feb_25_1224,testDotsStepRampPilot,2020.2.5,59.92951086095656,
59,0,59,0,None,None,None,None,237.88371809991077,238.38593330001459,237.88371809991077,238.90363959991373,238.38593330001459,238.88655579998158,238.88655579998158,240.0714606998954,1.0,-504753.059484,236.8848382698372,regan_18_final,90,1,0,34,1,2021_Feb_25_1224,testDotsStepRampPilot,2020.2.5,59.92951086095656,
60,0,60,0,None,None,None,None,241.08951939991675,241.58956520003267,241.08951939991675,242.10844839992933,241.58956520003267,242.08992119994946,242.08992119994946,243.27543219993822,0.0,-504749.856026,240.08813716988078,regan_18_final,90,1,0,34,1,2021_Feb_25_1224,testDotsStepRampPilot,2020.2.5,59.92951086095656,
61,0,61,0,None,None,None,None,244.29458260000683,244.80989259993657,244.29458260000683,245.32589749991894,244.80989259993657,245.3102282998152,245.3102282998152,246.49378599994816,1.0,-504746.650962,243.2921086699236,regan_18_final,90,1,0,34,1,2021_Feb_25_1224,testDotsStepRampPilot,2020.2.5,59.92951086095656,
62,0,62,0,None,None,None,None,247.51474899984896,248.0298478999175,247.51474899984896,248.54627329995856,248.0298478999175,248.53115159994923,248.53115159994923,249.71400619996712,1.0,-504743.430639,246.51046246993354,regan_18_final,90,1,0,34,1,2021_Feb_25_1224,testDotsStepRampPilot,2020.2.5,59.92951086095656,
63,0,63,0,None,None,None,None,250.73464889987372,251.24919419991784,250.73464889987372,251.76540749985725,251.24919419991784,251.75010479986668,251.75010479986668,252.9337520999834,0.0,-504740.210504,249.7306826699525,regan_18_final,90,1,0,34,1,2021_Feb_25_1224,testDotsStepRampPilot,2020.2.5,59.92951086095656,
64,0,64,0,None,None,None,None,253.95260469987988,254.45245089987293,253.95260469987988,254.9700277999509,254.45245089987293,254.9538326000329,254.9538326000329,256.13780289981514,1.0,-504736.993047,252.95042856996878,regan_18_final,90,1,0,34,1,2021_Feb_25_1224,testDotsStepRampPilot,2020.2.5,59.92951086095656,
65,0,65,0,None,None,None,None,257.15389309986494,257.6555097999517,257.15389309986494,258.17240859987214,257.6555097999517,258.15695460001007,258.15695460001007,259.3409026998561,1.0,-504733.790792,256.1544793698005,regan_18_final,90,1,0,34,1,2021_Feb_25_1224,testDotsStepRampPilot,2020.2.5,59.92951086095656,
66,0,66,0,None,None,None,None,260.35831749998033,260.85994330001995,260.35831749998033,261.37553049996495,260.85994330001995,261.3598203000147,261.3598203000147,262.5443810999859,1.0,-504730.587182,259.3575791698415,regan_18_final,90,1,0,34,1,2021_Feb_25_1224,testDotsStepRampPilot,2020.2.5,59.92951086095656,
67,0,67,0,None,None,None,None,263.56298469984904,264.063253399916,263.56298469984904,264.5797577998601,264.063253399916,264.56227909983136,264.56227909983136,265.74844849994406,1.0,-504727.382762,262.5610575699713,regan_18_final,90,1,0,34,1,2021_Feb_25_1224,testDotsStepRampPilot,2020.2.5,59.92951086095656,
68,0,68,0,265.765940599842,293.7747876998037,293.7747876998037,297.7703448999673,297.7703448999673,298.2796753998846,297.7703448999673,298.7976492999587,298.2796753998846,298.7793709000107,298.7793709000107,299.96551939984784,1.0,-504724.179581,265.76512496992945,regan_18_final,90,1,0,34,1,2021_Feb_25_1224,testDotsStepRampPilot,2020.2.5,59.92951086095656,
69,0,69,0,None,None,None,None,300.9813079999294,301.483400200028,300.9813079999294,301.99989670002833,301.483400200028,301.9838750998024,301.9838750998024,303.1676233999897,1.0,-504689.962549,299.9821958698332,regan_18_final,90,1,0,34,1,2021_Feb_25_1224,testDotsStepRampPilot,2020.2.5,59.92951086095656,
70,0,70,0,None,None,None,None,304.1859102000017,304.68651589984074,304.1859102000017,305.20360529981554,304.68651589984074,305.18774720001966,305.18774720001966,306.37201699987054,0.0,-504686.759904,303.18429986997506,regan_18_final,90,1,0,34,1,2021_Feb_25_1224,testDotsStepRampPilot,2020.2.5,59.92951086095656,
71,0,71,0,None,None,None,None,307.38859849981964,307.88915860001,307.38859849981964,308.4067314998247,307.88915860001,308.38960210001096,308.38960210001096,309.57349290000275,1.0,-504683.556046,306.3886934698559,regan_18_final,90,1,0,34,1,2021_Feb_25_1224,testDotsStepRampPilot,2020.2.5,59.92951086095656,
72,0,72,0,None,None,None,None,310.5898517998867,311.09225799981505,310.5898517998867,311.60932699986733,311.09225799981505,311.59279769985005,311.59279769985005,312.77777979988605,0.0,-504680.354772,309.59016936998813,regan_18_final,90,1,0,34,1,2021_Feb_25_1224,testDotsStepRampPilot,2020.2.5,59.92951086095656,
73,0,73,0,None,None,None,None,313.7971516000107,314.31417789985426,313.7971516000107,314.8460201998241,314.31417789985426,314.8291052998975,314.8291052998975,316.0138224000111,0.0,-504677.147416,312.79445626987143,regan_18_final,90,1,0,34,1,2021_Feb_25_1224,testDotsStepRampPilot,2020.2.5,59.92951086095656,
74,0,74,0,None,None,None,None,317.0295969999861,317.5327706998214,317.0295969999861,318.04915269999765,317.5327706998214,318.0335962998215,318.0335962998215,319.21651860000566,0.0,-504673.914366,316.0304988699965,regan_18_final,90,1,0,34,1,2021_Feb_25_1224,testDotsStepRampPilot,2020.2.5,59.92951086095656,
75,0,75,0,None,None,None,None,320.2340541998856,320.7394212000072,320.2340541998856,321.26823299983516,320.7394212000072,321.25339620001614,321.25339620001614,322.43647269997746,1.0,-504670.710399,319.23319506999104,regan_18_final,90,1,0,34,1,2021_Feb_25_1224,testDotsStepRampPilot,2020.2.5,59.92951086095656,
76,0,76,0,None,None,None,None,323.45288029988296,323.95637799985707,323.45288029988296,324.47328039980493,323.95637799985707,324.45600909995846,324.45600909995846,325.6408086998854,0.0,-504667.491793,322.45314916996284,regan_18_final,90,1,0,34,1,2021_Feb_25_1224,testDotsStepRampPilot,2020.2.5,59.92951086095656,
77,0,77,0,None,None,None,None,326.65844769985415,327.15798789984547,326.65844769985415,327.67615600000136,327.15798789984547,327.6587918999139,327.6587918999139,328.84365279995836,0.0,-504664.286898,325.65748516987077,regan_18_final,90,1,0,34,1,2021_Feb_25_1224,testDotsStepRampPilot,2020.2.5,59.92951086095656,
78,0,78,0,None,None,None,None,329.8617228998337,330.3619454000145,329.8617228998337,330.87890789983794,330.3619454000145,330.86262389994226,330.86262389994226,332.04887069994584,0.0,-504661.083902,328.86032926994375,regan_18_final,90,1,0,34,1,2021_Feb_25_1224,testDotsStepRampPilot,2020.2.5,59.92951086095656,
79,0,79,0,None,None,None,None,333.0669219000265,333.5818076999858,333.0669219000265,334.0983436999377,333.5818076999858,334.08188339998014,334.08188339998014,335.2668333000038,1.0,-504657.878265,332.0655471699312,regan_18_final,90,1,0,34,1,2021_Feb_25_1224,testDotsStepRampPilot,2020.2.5,59.92951086095656,
80,0,80,0,None,None,None,None,336.28744819993153,336.80128769995645,336.28744819993153,337.3180257999338,336.80128769995645,337.301866899943,337.301866899943,338.4860193999484,0.0,-504654.657157,335.28350976998917,regan_18_final,90,1,0,34,1,2021_Feb_25_1224,testDotsStepRampPilot,2020.2.5,59.92951086095656,
81,0,81,0,None,None,None,None,339.50424529984593,340.0047136999201,339.50424529984593,340.5220674998127,340.0047136999201,340.5050962998066,340.5050962998066,341.6897549999412,0.0,-504651.442189,338.5026958699338,regan_18_final,90,1,0,34,1,2021_Feb_25_1224,testDotsStepRampPilot,2020.2.5,59.92951086095656,
82,0,82,0,None,None,None,None,342.70443009980954,343.2080388998147,342.70443009980954,343.7251073999796,343.2080388998147,343.70904430001974,343.70904430001974,344.89205219992436,0.0,-504648.238756,341.7064314699266,regan_18_final,90,1,0,34,1,2021_Feb_25_1224,testDotsStepRampPilot,2020.2.5,59.92951086095656,
83,0,83,0,None,None,None,None,345.9083080999553,346.4114373999182,345.9083080999553,346.92922179983,346.4114373999182,346.91216379986145,346.91216379986145,348.09601879981346,1.0,-504645.035852,344.90872866990975,regan_18_final,90,1,0,34,1,2021_Feb_25_1224,testDotsStepRampPilot,2020.2.5,59.92951086095656,
84,0,84,0,None,None,None,None,349.11608830001205,349.63236419996247,349.11608830001205,350.1659442000091,349.63236419996247,350.1477774998639,350.1477774998639,351.3320904998109,0.0,-504641.83112,348.11269526979885,regan_18_final,90,1,0,34,1,2021_Feb_25_1224,testDotsStepRampPilot,2020.2.5,59.92951086095656,
85,0,85,0,None,None,None,None,352.34879109985195,352.8515667999163,352.34879109985195,353.36771249980666,352.8515667999163,353.3537349998951,353.3537349998951,354.53522079996765,1.0,-504638.595453,351.34876696979626,regan_18_final,90,1,0,34,1,2021_Feb_25_1224,testDotsStepRampPilot,2020.2.5,59.92951086095656,
86,0,86,0,None,None,None,None,355.5564490999095,356.0704128998332,355.5564490999095,356.5875921000261,356.0704128998332,356.5711472998373,356.5711472998373,357.7550500999205,1.0,-504635.390115,354.55189726995303,regan_18_final,90,1,0,34,1,2021_Feb_25_1224,testDotsStepRampPilot,2020.2.5,59.92951086095656,
87,0,87,0,None,None,None,None,358.7742218999192,359.27417029999197,358.7742218999192,359.79278069990687,359.27417029999197,359.7761188999284,359.7761188999284,360.9590215999633,0.0,-504632.172798,357.77172656990587,regan_18_final,90,1,0,34,1,2021_Feb_25_1224,testDotsStepRampPilot,2020.2.5,59.92951086095656,
88,0,88,0,None,None,None,None,361.97647609980777,362.47806159988977,361.97647609980777,362.994610699825,362.47806159988977,362.9780141999945,362.9780141999945,364.1625836000312,0.0,-504628.969179,360.9756980699487,regan_18_final,90,1,0,34,1,2021_Feb_25_1224,testDotsStepRampPilot,2020.2.5,59.92951086095656,
89,0,89,0,None,None,None,None,365.1799822000321,365.6817429999355,365.1799822000321,366.213277899893,365.6817429999355,366.19800229999237,366.19800229999237,367.3837380998302,1.0,-504625.765442,364.1792600700166,regan_18_final,90,1,0,34,1,2021_Feb_25_1224,testDotsStepRampPilot,2020.2.5,59.92951086095656,
90,0,90,0,None,None,None,None,368.39974599983543,368.9016006998718,368.39974599983543,369.4344986998476,368.9016006998718,369.41692409990355,369.41692409990355,370.6033732998185,1.0,-504622.544324,367.4004145698156,regan_18_final,90,1,0,34,1,2021_Feb_25_1224,testDotsStepRampPilot,2020.2.5,59.92951086095656,
91,0,91,0,None,None,None,None,371.62079429998994,372.1206933998037,371.62079429998994,372.63672770000994,372.1206933998037,372.62162059987895,372.62162059987895,373.8045185999945,1.0,-504619.324085,370.62004976980387,regan_18_final,90,1,0,34,1,2021_Feb_25_1224,testDotsStepRampPilot,2020.2.5,59.92951086095656,
92,0,92,0,None,None,None,None,374.82356089982204,375.324011299992,374.82356089982204,375.84195609996095,375.324011299992,375.8240786998067,375.8240786998067,377.0093182998244,0.0,-504616.122034,373.82119506997986,regan_18_final,90,1,0,34,1,2021_Feb_25_1224,testDotsStepRampPilot,2020.2.5,59.92951086095656,
93,0,93,0,None,None,None,None,378.0259535999503,378.528878999874,378.0259535999503,379.06239809980616,378.528878999874,379.04507229989395,379.04507229989395,380.22979659982957,1.0,-504612.918824,377.02599476980976,regan_18_final,90,1,0,34,1,2021_Feb_25_1224,testDotsStepRampPilot,2020.2.5,59.92951086095656,
94,0,94,0,None,None,None,None,381.24605119996704,381.7476059999317,381.24605119996704,382.26441269996576,381.7476059999317,382.2483657998964,382.2483657998964,383.4320021998137,1.0,-504609.697956,380.24647306981495,regan_18_final,90,1,0,34,1,2021_Feb_25_1224,testDotsStepRampPilot,2020.2.5,59.92951086095656,
95,0,95,0,None,None,None,None,384.4498532998841,384.95074360002764,384.4498532998841,385.48392979986966,384.95074360002764,385.46584749990143,385.46584749990143,386.653082099976,1.0,-504606.49599,383.4486786697991,regan_18_final,90,1,0,34,1,2021_Feb_25_1224,testDotsStepRampPilot,2020.2.5,59.92951086095656,
96,0,96,0,None,None,None,None,387.6700640998315,388.16990229999647,387.6700640998315,388.7038936999161,388.16990229999647,388.6862440998666,388.6862440998666,389.871923699975,1.0,-504603.274536,386.6697585699614,regan_18_final,90,1,0,34,1,2021_Feb_25_1224,testDotsStepRampPilot,2020.2.5,59.92951086095656,
97,0,97,0,None,None,None,None,390.8907118998468,391.3899234000128,390.8907118998468,391.90615519997664,391.3899234000128,391.89004969992675,391.89004969992675,393.07372209988534,1.0,-504600.05574,389.8886001699604,regan_18_final,90,1,0,34,1,2021_Feb_25_1224,testDotsStepRampPilot,2020.2.5,59.92951086095656,
98,0,98,0,None,None,None,None,394.09400339983404,394.5932076999452,394.09400339983404,395.10984369996004,394.5932076999452,395.093995800009,395.093995800009,396.27942139981315,1.0,-504596.853079,393.09039856987073,regan_18_final,90,1,0,34,1,2021_Feb_25_1224,testDotsStepRampPilot,2020.2.5,59.92951086095656,
99,0,99,0,None,None,None,None,397.29575609997846,397.7965851998888,397.29575609997846,398.3137105999049,397.7965851998888,398.2972163998056,398.2972163998056,399.4821809998248,1.0,-504593.648841,396.29609786979853,regan_18_final,90,1,0,34,1,2021_Feb_25_1224,testDotsStepRampPilot,2020.2.5,59.92951086095656,
