trials.thisRepN,trials.thisTrialN,trials.thisN,trials.thisIndex,break_text.started,break_text.stopped,postbreak_text.started,postbreak_text.stopped,fixation1.started,fixation1.stopped,red_dot.started,red_dot.stopped,fixation2.started,fixation2.stopped,pursuit_or_saccade_dot.started,pursuit_or_saccade_dot.stopped,pursuit_saccade_isLeft,pupil_timestamp,psychopy_timestamp,participant,trials_per_condition,pursuit_or_saccade,practice_version,break_every_n_trials,pupil_on,date,expName,psychopyVersion,frameRate,
0,0,0,0,None,None,None,None,18.28076899982989,18.785213799914345,18.28076899982989,19.302232699934393,18.785213799914345,19.286490299971774,19.286490299971774,20.43718949984759,0.0,-506347.830896,17.24794814006891,regan_current_final,90,1,0,30,1,2021_Feb_25_1201,testDotsStepRampPilot,2020.2.5,60.06669800992746,
1,0,1,0,None,None,None,None,21.45322459982708,21.954254599986598,21.45322459982708,22.471235299948603,21.954254599986598,22.45586569979787,22.45586569979787,23.60740079986863,0.0,-506344.633288,20.453836359851994,regan_current_final,90,1,0,30,1,2021_Feb_25_1201,testDotsStepRampPilot,2020.2.5,60.06669800992746,
2,0,2,0,None,None,None,None,24.624474999960512,25.123696099966764,24.624474999960512,25.641006799880415,25.123696099966764,25.62536869989708,25.62536869989708,26.77631469978951,0.0,-506341.463094,23.624047659873032,regan_current_final,90,1,0,30,1,2021_Feb_25_1201,testDotsStepRampPilot,2020.2.5,60.06669800992746,
3,0,3,0,None,None,None,None,27.79474479984492,28.294243999989703,27.79474479984492,28.811910099815577,28.294243999989703,28.794135899981484,28.794135899981484,29.947262599831447,0.0,-506338.294584,26.792961559793913,regan_current_final,90,1,0,30,1,2021_Feb_25_1201,testDotsStepRampPilot,2020.2.5,60.06669800992746,
4,0,4,0,None,None,None,None,30.96399619989097,31.46439989982173,30.96399619989097,31.98054499994032,31.46439989982173,31.96392839984037,31.96392839984037,33.11535279988311,1.0,-506335.124188,29.96390945983585,regan_current_final,90,1,0,30,1,2021_Feb_25_1201,testDotsStepRampPilot,2020.2.5,60.06669800992746,
5,0,5,0,None,None,None,None,34.135380499996245,34.650983499828726,34.135380499996245,35.168331999797374,34.650983499828726,35.151388599770144,35.151388599770144,36.31935849995352,0.0,-506331.955063,33.13199965988751,regan_current_final,90,1,0,30,1,2021_Feb_25_1201,testDotsStepRampPilot,2020.2.5,60.06669800992746,
6,0,6,0,None,None,None,None,37.33677599998191,37.83748619980179,37.33677599998191,38.353970899945125,37.83748619980179,38.33803719980642,38.33803719980642,39.490138799883425,1.0,-506328.751258,36.33600535995792,regan_current_final,90,1,0,30,1,2021_Feb_25_1201,testDotsStepRampPilot,2020.2.5,60.06669800992746,
7,0,7,0,None,None,None,None,40.506592699792236,41.02337889978662,40.506592699792236,41.541120999958366,41.02337889978662,41.52487699990161,41.52487699990161,42.6756489998661,0.0,-506325.581275,39.506785659887825,regan_current_final,90,1,0,30,1,2021_Feb_25_1201,testDotsStepRampPilot,2020.2.5,60.06669800992746,
8,0,8,0,None,None,None,None,43.69263569987379,44.1939724998083,43.69263569987379,44.71152949985117,44.1939724998083,44.694096099818125,44.694096099818125,45.84436779981479,1.0,-506322.395237,42.6922958598705,regan_current_final,90,1,0,30,1,2021_Feb_25_1201,testDotsStepRampPilot,2020.2.5,60.06669800992746,
9,0,9,0,None,None,None,None,46.86454779980704,47.36238109995611,46.86454779980704,47.880583899794146,47.36238109995611,47.86329229990952,47.86329229990952,49.01536609977484,1.0,-506319.223685,45.86101465981919,regan_current_final,90,1,0,30,1,2021_Feb_25_1201,testDotsStepRampPilot,2020.2.5,60.06669800992746,
10,0,10,0,None,None,None,None,50.030597699806094,50.53335899999365,50.030597699806094,51.05041229980998,50.53335899999365,51.033014699816704,51.033014699816704,52.184468399966136,0.0,-506316.055348,49.03201295977924,regan_current_final,90,1,0,30,1,2021_Feb_25_1201,testDotsStepRampPilot,2020.2.5,60.06669800992746,
11,0,11,0,None,None,None,None,53.2041652998887,53.71983619988896,53.2041652998887,54.23773459997028,53.71983619988896,54.22036709985696,54.22036709985696,55.37041539978236,1.0,-506312.885935,52.201115259970535,regan_current_final,90,1,0,30,1,2021_Feb_25_1201,testDotsStepRampPilot,2020.2.5,60.06669800992746,
12,0,12,0,None,None,None,None,56.388688899809495,56.88882659981027,56.388688899809495,57.40709699993022,56.88882659981027,57.391670799814165,57.391670799814165,58.541709899902344,1.0,-506309.700362,55.38706225978676,regan_current_final,90,1,0,30,1,2021_Feb_25_1201,testDotsStepRampPilot,2020.2.5,60.06669800992746,
13,0,13,0,None,None,None,None,59.560843999963254,60.076423099962994,59.560843999963254,60.60912469984032,60.076423099962994,60.59354759985581,60.59354759985581,61.74497019988485,1.0,-506306.527562,58.558356759906744,regan_current_final,90,1,0,30,1,2021_Feb_25_1201,testDotsStepRampPilot,2020.2.5,60.06669800992746,
14,0,14,0,None,None,None,None,62.76112629985437,63.262731599854305,62.76112629985437,63.77908039977774,63.262731599854305,63.76339399977587,63.76339399977587,64.91284899995662,1.0,-506303.325932,61.76161705988925,regan_current_final,90,1,0,30,1,2021_Feb_25_1201,testDotsStepRampPilot,2020.2.5,60.06669800992746,
15,0,15,0,None,None,None,None,65.93254239996895,66.43293639994226,65.93254239996895,66.94997009984218,66.43293639994226,66.93393879989162,66.93393879989162,68.10021710000001,0.0,-506300.155718,64.92949585996102,regan_current_final,90,1,0,30,1,2021_Feb_25_1201,testDotsStepRampPilot,2020.2.5,60.06669800992746,
16,0,16,0,None,None,None,None,69.11875669984147,69.62031589983962,69.11875669984147,70.13656779984012,69.62031589983962,70.12028679996729,70.12028679996729,71.28707869979553,0.0,-506296.97005,68.11686396000441,regan_current_final,90,1,0,30,1,2021_Feb_25_1201,testDotsStepRampPilot,2020.2.5,60.06669800992746,
17,0,17,0,None,None,None,None,72.30462729977444,72.80569319985807,72.30462729977444,73.32301639998332,72.80569319985807,73.30634659994394,73.30634659994394,74.45728639978915,1.0,-506293.784174,71.30372555979993,regan_current_final,90,1,0,30,1,2021_Feb_25_1201,testDotsStepRampPilot,2020.2.5,60.06669800992746,
18,0,18,0,None,None,None,None,75.4732564999722,75.9745210998226,75.4732564999722,76.49141039978713,75.9745210998226,76.47486439999193,76.47486439999193,77.6273874999024,1.0,-506290.614061,74.47393325979355,regan_current_final,90,1,0,30,1,2021_Feb_25_1201,testDotsStepRampPilot,2020.2.5,60.06669800992746,
19,0,19,0,None,None,None,None,78.64470799989067,79.1445368998684,78.64470799989067,79.66123489988968,79.1445368998684,79.64597449987195,79.64597449987195,80.79731449997053,1.0,-506287.443146,77.6440343599068,regan_current_final,90,1,0,30,1,2021_Feb_25_1201,testDotsStepRampPilot,2020.2.5,60.06669800992746,
20,0,20,0,None,None,None,None,81.81677109980956,82.33208509976976,81.81677109980956,82.8482913998887,82.33208509976976,82.83231589989737,82.83231589989737,83.98245649994351,1.0,-506284.271627,80.81396135997493,regan_current_final,90,1,0,30,1,2021_Feb_25_1201,testDotsStepRampPilot,2020.2.5,60.06669800992746,
21,0,21,0,None,None,None,None,85.00300589995459,85.50192039995454,85.00300589995459,86.01902559981681,85.50192039995454,86.00333339977078,86.00333339977078,87.15322479978204,1.0,-506281.086114,83.99910335994791,regan_current_final,90,1,0,30,1,2021_Feb_25_1201,testDotsStepRampPilot,2020.2.5,60.06669800992746,
22,0,22,0,None,None,None,None,88.16815619985573,88.67266709986143,88.16815619985573,89.18873559986241,88.67266709986143,89.17247579991817,89.17247579991817,90.32495309994556,1.0,-506277.91827,87.16987165978644,regan_current_final,90,1,0,30,1,2021_Feb_25_1201,testDotsStepRampPilot,2020.2.5,60.06669800992746,
23,0,23,0,None,None,None,None,91.34169319993816,91.84063739981502,91.34169319993816,92.35798619990237,91.84063739981502,92.34176729992032,92.34176729992032,93.5104128997773,0.0,-506274.745596,90.34159995994996,regan_current_final,90,1,0,30,1,2021_Feb_25_1201,testDotsStepRampPilot,2020.2.5,60.06669800992746,
24,0,24,0,None,None,None,None,94.52551639988087,95.02843609987758,94.52551639988087,95.54493709979579,95.02843609987758,95.52869039983489,95.52869039983489,96.67940759984776,0.0,-506271.560659,93.5270597597817,regan_current_final,90,1,0,30,1,2021_Feb_25_1201,testDotsStepRampPilot,2020.2.5,60.06669800992746,
25,0,25,0,None,None,None,None,97.6989534997847,98.214339699829,97.6989534997847,98.73232369986363,98.214339699829,98.71465049986728,98.71465049986728,99.86576039995998,0.0,-506268.390638,96.69605445985216,regan_current_final,90,1,0,30,1,2021_Feb_25_1201,testDotsStepRampPilot,2020.2.5,60.06669800992746,
26,0,26,0,None,None,None,None,100.88651109999046,101.40101859997958,100.88651109999046,101.91758069978096,101.40101859997958,101.90138229983859,101.90138229983859,103.06920769996941,1.0,-506265.203521,99.88240725996438,regan_current_final,90,1,0,30,1,2021_Feb_25_1201,testDotsStepRampPilot,2020.2.5,60.06669800992746,
27,0,27,0,None,None,None,None,104.08484609983861,104.58745729993097,104.08484609983861,105.1062973998487,104.58745729993097,105.0870522998739,105.0870522998739,106.23808729997836,1.0,-506262.002158,103.08585455997381,regan_current_final,90,1,0,30,1,2021_Feb_25_1201,testDotsStepRampPilot,2020.2.5,60.06669800992746,
28,0,28,0,None,None,None,None,107.2572164000012,107.75661879987456,107.2572164000012,108.27591049997136,107.75661879987456,108.26041919994168,108.26041919994168,109.4099119999446,0.0,-506258.832818,106.25473415998276,regan_current_final,90,1,0,30,1,2021_Feb_25_1201,testDotsStepRampPilot,2020.2.5,60.06669800992746,
29,0,29,0,None,None,None,None,110.42696649977006,110.9262598999776,110.42696649977006,111.44353629997931,110.9262598999776,111.42647549998946,111.42647549998946,112.57964449981228,1.0,-506255.659457,109.426558859949,regan_current_final,90,1,0,30,1,2021_Feb_25_1201,testDotsStepRampPilot,2020.2.5,60.06669800992746,
30,0,30,0,112.5973881999962,190.5898979997728,190.5898979997728,194.58766129985452,194.58766129985452,195.09473659982905,194.58766129985452,195.6109598998446,195.09473659982905,195.59525459981523,195.59525459981523,196.74490369996056,0.0,-506252.491236,112.59629135981668,regan_current_final,90,1,0,30,1,2021_Feb_25_1201,testDotsStepRampPilot,2020.2.5,60.06669800992746,
31,0,31,0,None,None,None,None,197.7630301997997,198.264503599843,197.7630301997997,198.78157579991966,198.264503599843,198.76508389995433,198.76508389995433,199.93174239993095,0.0,-506168.325308,196.76155055996497,regan_current_final,90,1,0,30,1,2021_Feb_25_1201,testDotsStepRampPilot,2020.2.5,60.06669800992746,
32,0,32,0,None,None,None,None,200.94849589979276,201.4516012999229,200.94849589979276,201.96872349991463,201.4516012999229,201.95147129986435,201.95147129986435,203.10205759992823,0.0,-506165.1392,199.94838925993537,regan_current_final,90,1,0,30,1,2021_Feb_25_1201,testDotsStepRampPilot,2020.2.5,60.06669800992746,
33,0,33,0,None,None,None,None,204.11779009993188,204.6199697998818,204.11779009993188,205.13852859986946,204.6199697998818,205.12072109989822,205.12072109989822,206.2713295998983,0.0,-506161.96923,203.11870445993264,regan_current_final,90,1,0,30,1,2021_Feb_25_1201,testDotsStepRampPilot,2020.2.5,60.06669800992746,
34,0,34,0,None,None,None,None,207.28788159997202,207.7904015998356,207.28788159997202,208.3071758998558,207.7904015998356,208.2913125997875,208.2913125997875,209.44278619997203,0.0,-506158.799162,206.28797645990272,regan_current_final,90,1,0,30,1,2021_Feb_25_1201,testDotsStepRampPilot,2020.2.5,60.06669800992746,
35,0,35,0,None,None,None,None,210.4612848998513,210.97718459996395,210.4612848998513,211.49353859992698,210.97718459996395,211.47692599985749,211.47692599985749,212.62876319978386,1.0,-506155.626059,209.45943305997645,regan_current_final,90,1,0,30,1,2021_Feb_25_1201,testDotsStepRampPilot,2020.2.5,60.06669800992746,
36,0,36,0,None,None,None,None,213.6459523998201,214.14742339984514,213.6459523998201,214.6635020999238,214.14742339984514,214.6464022998698,214.6464022998698,215.79816119978204,0.0,-506152.442213,212.64541005978828,regan_current_final,90,1,0,30,1,2021_Feb_25_1201,testDotsStepRampPilot,2020.2.5,60.06669800992746,
37,0,37,0,None,None,None,None,216.81476429989561,217.317243399797,216.81476429989561,217.832737499848,217.317243399797,217.81651859986596,217.81651859986596,218.96853309986182,0.0,-506149.273148,215.81480805978646,regan_current_final,90,1,0,30,1,2021_Feb_25_1201,testDotsStepRampPilot,2020.2.5,60.06669800992746,
38,0,38,0,None,None,None,None,219.98559499997646,220.4864501999691,219.98559499997646,221.0042280999478,220.4864501999691,220.9873541998677,220.9873541998677,222.1382821998559,0.0,-506146.102092,218.98517995986623,regan_current_final,90,1,0,30,1,2021_Feb_25_1201,testDotsStepRampPilot,2020.2.5,60.06669800992746,
39,0,39,0,None,None,None,None,223.1532745999284,223.65572149981745,223.1532745999284,224.1740226999391,223.65572149981745,224.1569435999263,224.1569435999263,225.3247262998484,1.0,-506142.933188,222.1549290598603,regan_current_final,90,1,0,30,1,2021_Feb_25_1201,testDotsStepRampPilot,2020.2.5,60.06669800992746,
40,0,40,0,None,None,None,None,226.34221469983459,226.84201599983498,226.34221469983459,227.3607552999165,226.84201599983498,227.34296699985862,227.34296699985862,228.4956517999526,1.0,-506139.743727,225.34137315985282,regan_current_final,90,1,0,30,1,2021_Feb_25_1201,testDotsStepRampPilot,2020.2.5,60.06669800992746,
41,0,41,0,None,None,None,None,229.51233329996467,230.01283369981684,229.51233329996467,230.5291361999698,230.01283369981684,230.51255899993703,230.51255899993703,231.664017399773,1.0,-506136.575474,228.51229865995703,regan_current_final,90,1,0,30,1,2021_Feb_25_1201,testDotsStepRampPilot,2020.2.5,60.06669800992746,
42,0,42,0,None,None,None,None,232.6820485999342,233.18293219991028,232.6820485999342,233.69904659991153,233.18293219991028,233.68348319991492,233.68348319991492,234.83426549984142,1.0,-506133.407182,231.68066425977742,regan_current_final,90,1,0,30,1,2021_Feb_25_1201,testDotsStepRampPilot,2020.2.5,60.06669800992746,
43,0,43,0,None,None,None,None,235.85092789982446,236.3527980998624,235.85092789982446,236.8706367998384,236.3527980998624,236.8530195998028,236.8530195998028,238.0056559999939,1.0,-506130.236306,234.85091235984584,regan_current_final,90,1,0,30,1,2021_Feb_25_1201,testDotsStepRampPilot,2020.2.5,60.06669800992746,
44,0,44,0,None,None,None,None,239.02277579996735,239.5376104998868,239.02277579996735,240.05575819988735,239.5376104998868,240.03841869998723,240.03841869998723,241.19115449977107,0.0,-506127.064863,238.02230285999832,regan_current_final,90,1,0,30,1,2021_Feb_25_1201,testDotsStepRampPilot,2020.2.5,60.06669800992746,
45,0,45,0,None,None,None,None,242.20597099978477,242.70940799987875,242.20597099978477,243.2265453999862,242.70940799987875,243.20875239977613,243.20875239977613,244.35959059977904,1.0,-506123.880089,241.2078013597755,regan_current_final,90,1,0,30,1,2021_Feb_25_1201,testDotsStepRampPilot,2020.2.5,60.06669800992746,
46,0,46,0,None,None,None,None,245.37733609997667,245.8784453999251,245.37733609997667,246.40442629996687,245.8784453999251,246.37900569988415,246.37900569988415,247.53060109983198,0.0,-506120.710894,244.37623745978345,regan_current_final,90,1,0,30,1,2021_Feb_25_1201,testDotsStepRampPilot,2020.2.5,60.06669800992746,
47,0,47,0,None,None,None,None,248.54865329992026,249.04856969998218,248.54865329992026,249.56621979991905,249.04856969998218,249.54923369991593,249.54923369991593,250.69901059987023,1.0,-506117.539819,247.5472479598364,regan_current_final,90,1,0,30,1,2021_Feb_25_1201,testDotsStepRampPilot,2020.2.5,60.06669800992746,
48,0,48,0,None,None,None,None,251.71597939985804,252.21948999981396,251.71597939985804,252.73583319992758,252.21948999981396,252.71928489999846,252.71928489999846,253.87041549989954,1.0,-506114.371637,250.71565745987465,regan_current_final,90,1,0,30,1,2021_Feb_25_1201,testDotsStepRampPilot,2020.2.5,60.06669800992746,
49,0,49,0,None,None,None,None,254.88728029979393,255.38706629979424,254.88728029979393,255.9051422998309,255.38706629979424,255.8878795998171,255.8878795998171,257.0417218999937,1.0,-506111.200193,253.88706235990395,regan_current_final,90,1,0,30,1,2021_Feb_25_1201,testDotsStepRampPilot,2020.2.5,60.06669800992746,
50,0,50,0,None,None,None,None,258.0578529997729,258.55724609992467,258.0578529997729,259.07381339999847,258.55724609992467,259.0587537998799,259.0587537998799,260.2098070997745,0.0,-506108.029595,257.05836875999813,regan_current_final,90,1,0,30,1,2021_Feb_25_1201,testDotsStepRampPilot,2020.2.5,60.06669800992746,
51,0,51,0,None,None,None,None,261.2290477999486,261.7296762999613,261.2290477999486,262.2455089997966,261.7296762999613,262.2273556999862,262.2273556999862,263.38105329987593,1.0,-506104.859699,260.2264539597789,regan_current_final,90,1,0,30,1,2021_Feb_25_1201,testDotsStepRampPilot,2020.2.5,60.06669800992746,
52,0,52,0,None,None,None,None,264.3978138999082,264.8983201999217,264.3978138999082,265.4137297999114,264.8983201999217,265.39820109982975,265.39820109982975,266.5480448999442,1.0,-506101.689518,263.39770015988034,regan_current_final,90,1,0,30,1,2021_Feb_25_1201,testDotsStepRampPilot,2020.2.5,60.06669800992746,
53,0,53,0,None,None,None,None,267.56866089999676,268.0841377999168,267.56866089999676,268.60185059998184,268.0841377999168,268.58477899990976,268.58477899990976,269.7525811998639,1.0,-506098.521821,266.56469175994863,regan_current_final,90,1,0,30,1,2021_Feb_25_1201,testDotsStepRampPilot,2020.2.5,60.06669800992746,
54,0,54,0,None,None,None,None,270.7674667998217,271.2710107997991,270.7674667998217,271.7883129999973,271.2710107997991,271.771418399876,271.771418399876,272.9223636998795,1.0,-506095.318697,269.76922805986834,regan_current_final,90,1,0,30,1,2021_Feb_25_1201,testDotsStepRampPilot,2020.2.5,60.06669800992746,
55,0,55,0,None,None,None,None,273.940106399823,274.43932769983076,273.940106399823,274.99058839981444,274.43932769983076,274.9709057,274.9709057,276.0926081999205,0.0,-506092.147932,272.9390105598839,regan_current_final,90,1,0,30,1,2021_Feb_25_1201,testDotsStepRampPilot,2020.2.5,60.06669800992746,
56,0,56,0,None,None,None,None,277.11447799997404,277.6262932999525,277.11447799997404,278.14312099991366,277.6262932999525,278.1278326997999,278.1278326997999,279.2796333997976,0.0,-506088.974348,276.1092550599249,regan_current_final,90,1,0,30,1,2021_Feb_25_1201,testDotsStepRampPilot,2020.2.5,60.06669800992746,
57,0,57,0,None,None,None,None,280.2984273999464,280.81349589978345,280.2984273999464,281.33008719980717,280.81349589978345,281.3143213998992,281.3143213998992,282.46451369998977,1.0,-506085.790191,279.296280259802,regan_current_final,90,1,0,30,1,2021_Feb_25_1201,testDotsStepRampPilot,2020.2.5,60.06669800992746,
58,0,58,0,None,None,None,None,283.4833905999549,283.9827884999104,283.4833905999549,284.500750299776,283.9827884999104,284.4857878999319,284.4857878999319,285.63470979989506,0.0,-506082.605648,282.4811605599942,regan_current_final,90,1,0,30,1,2021_Feb_25_1201,testDotsStepRampPilot,2020.2.5,60.06669800992746,
59,0,59,0,None,None,None,None,286.6510642999783,287.1547986997757,286.6510642999783,287.67191879986785,287.1547986997757,287.65284579992294,287.65284579992294,288.80442239996046,0.0,-506079.435739,285.6513566598995,regan_current_final,90,1,0,30,1,2021_Feb_25_1201,testDotsStepRampPilot,2020.2.5,60.06669800992746,
60,0,60,0,288.82218829984777,312.51212739991024,312.51212739991024,316.5073285999242,316.5073285999242,317.0154565998819,316.5073285999242,317.53393959999084,317.0154565998819,317.51636269991286,317.51636269991286,318.6683073998429,1.0,-506076.266263,288.8210692599649,regan_current_final,90,1,0,30,1,2021_Feb_25_1201,testDotsStepRampPilot,2020.2.5,60.06669800992746,
61,0,61,0,None,None,None,None,319.68583879992366,320.18656269996427,319.68583879992366,320.7027923997957,320.18656269996427,320.68700459995307,320.68700459995307,321.8372796999756,1.0,-506046.402518,318.6849542598473,regan_current_final,90,1,0,30,1,2021_Feb_25_1201,testDotsStepRampPilot,2020.2.5,60.06669800992746,
62,0,62,0,None,None,None,None,322.8577147999313,323.37246759980917,322.8577147999313,323.8892141999677,323.37246759980917,323.8727008998394,323.8727008998394,325.0233957997989,1.0,-506043.229472,321.85392655998004,regan_current_final,90,1,0,30,1,2021_Feb_25_1201,testDotsStepRampPilot,2020.2.5,60.06669800992746,
63,0,63,0,None,None,None,None,326.04203999997117,326.54250159999356,326.04203999997117,327.06005559978075,326.54250159999356,327.0423575998284,327.0423575998284,328.1943991999142,0.0,-506040.04651,325.0400426598033,regan_current_final,90,1,0,30,1,2021_Feb_25_1201,testDotsStepRampPilot,2020.2.5,60.06669800992746,
64,0,64,0,None,None,None,None,329.2116163999308,329.7128119999543,329.2116163999308,330.2293786997907,329.7128119999543,330.2131466998253,330.2131466998253,331.3634299999103,0.0,-506036.87612,328.2110460599186,regan_current_final,90,1,0,30,1,2021_Feb_25_1201,testDotsStepRampPilot,2020.2.5,60.06669800992746,
65,0,65,0,None,None,None,None,332.3799126998056,332.8832923998125,332.3799126998056,333.3999589998275,332.8832923998125,333.3842765998561,333.3842765998561,334.5342669999227,0.0,-506033.707658,331.3800768599147,regan_current_final,90,1,0,30,1,2021_Feb_25_1201,testDotsStepRampPilot,2020.2.5,60.06669800992746,
66,0,66,0,None,None,None,None,335.55329899978824,336.051935599884,335.55329899978824,336.5704109999351,336.051935599884,336.5519953998737,336.5519953998737,337.70399769977666,1.0,-506030.534701,334.5509138599271,regan_current_final,90,1,0,30,1,2021_Feb_25_1201,testDotsStepRampPilot,2020.2.5,60.06669800992746,
67,0,67,0,None,None,None,None,338.7204112999607,339.22234769980423,338.7204112999607,339.7568682997953,339.22234769980423,339.738783699926,339.738783699926,340.88980359979905,1.0,-506027.367287,337.7206445597811,regan_current_final,90,1,0,30,1,2021_Feb_25_1201,testDotsStepRampPilot,2020.2.5,60.06669800992746,
68,0,68,0,None,None,None,None,341.90762219997123,342.4087036999408,341.90762219997123,342.9256228997838,342.4087036999408,342.9085862999782,342.9085862999782,344.05898599978536,1.0,-506024.181025,340.90645045980347,regan_current_final,90,1,0,30,1,2021_Feb_25_1201,testDotsStepRampPilot,2020.2.5,60.06669800992746,
69,0,69,0,None,None,None,None,345.07712729997,345.57854109979235,345.07712729997,346.09558189986274,345.57854109979235,346.0785018999595,346.0785018999595,347.2301025998313,1.0,-506021.011772,344.0756328597898,regan_current_final,90,1,0,30,1,2021_Feb_25_1201,testDotsStepRampPilot,2020.2.5,60.06669800992746,
70,0,70,0,None,None,None,None,348.2466134999413,348.74735179985873,348.2466134999413,349.26548719988205,348.74735179985873,349.247918699868,349.247918699868,350.3990552998148,1.0,-506017.840956,347.2467494598357,regan_current_final,90,1,0,30,1,2021_Feb_25_1201,testDotsStepRampPilot,2020.2.5,60.06669800992746,
71,0,71,0,None,None,None,None,351.4153691998217,351.91810229979455,351.4153691998217,352.43415469978936,351.91810229979455,352.4186706999317,352.4186706999317,353.5698298998177,0.0,-506014.67218,350.4157021598192,regan_current_final,90,1,0,30,1,2021_Feb_25_1201,testDotsStepRampPilot,2020.2.5,60.06669800992746,
72,0,72,0,None,None,None,None,354.58892279979773,355.0874246999156,354.58892279979773,355.60522919986397,355.0874246999156,355.587560699787,355.587560699787,356.73952329996973,0.0,-506011.498446,353.5864767598221,regan_current_final,90,1,0,30,1,2021_Feb_25_1201,testDotsStepRampPilot,2020.2.5,60.06669800992746,
73,0,73,0,None,None,None,None,357.7582835999783,358.25695629999973,357.7582835999783,358.77416999987327,358.25695629999973,358.75852869986556,358.75852869986556,359.90853539993986,1.0,-506008.33096,356.75617015997415,regan_current_final,90,1,0,30,1,2021_Feb_25_1201,testDotsStepRampPilot,2020.2.5,60.06669800992746,
74,0,74,0,None,None,None,None,360.9272797999438,361.42633579997346,360.9272797999438,361.94483739999123,361.42633579997346,361.9276424997952,361.9276424997952,363.09473919984885,1.0,-506005.160682,359.9251822599443,regan_current_final,90,1,0,30,1,2021_Feb_25_1201,testDotsStepRampPilot,2020.2.5,60.06669800992746,
75,0,75,0,None,None,None,None,364.1120338998735,364.6147758997977,364.1120338998735,365.1482689999975,364.6147758997977,365.1224765998777,365.1224765998777,366.28233539988287,0.0,-506001.976231,363.11138605985326,regan_current_final,90,1,0,30,1,2021_Feb_25_1201,testDotsStepRampPilot,2020.2.5,60.06669800992746,
76,0,76,0,None,None,None,None,367.2983339999337,367.80021339980885,367.2983339999337,368.31668649986386,367.80021339980885,368.3057018998079,368.3057018998079,369.45325969997793,1.0,-505998.788244,366.2989822598873,regan_current_final,90,1,0,30,1,2021_Feb_25_1201,testDotsStepRampPilot,2020.2.5,60.06669800992746,
77,0,77,0,None,None,None,None,370.47189999977127,370.9867785999086,370.47189999977127,371.50353739992715,370.9867785999086,371.4878971998114,371.4878971998114,372.6381382998079,0.0,-505995.615496,369.46990655998235,regan_current_final,90,1,0,30,1,2021_Feb_25_1201,testDotsStepRampPilot,2020.2.5,60.06669800992746,
78,0,78,0,None,None,None,None,373.65776409977116,374.1568600998726,373.65776409977116,374.67547029978596,374.1568600998726,374.656955299899,374.656955299899,375.81062199990265,0.0,-505992.430475,372.6547851598123,regan_current_final,90,1,0,30,1,2021_Feb_25_1201,testDotsStepRampPilot,2020.2.5,60.06669800992746,
79,0,79,0,None,None,None,None,376.8274320999626,377.3269971997943,376.8274320999626,377.8429395998828,377.3269971997943,377.82675719982944,377.82675719982944,378.9779272999149,0.0,-505989.25987,375.82726885990706,regan_current_final,90,1,0,30,1,2021_Feb_25_1201,testDotsStepRampPilot,2020.2.5,60.06669800992746,
80,0,80,0,None,None,None,None,379.99683489999734,380.49682579981163,379.99683489999734,381.0129137998447,380.49682579981163,380.99719599983655,380.99719599983655,382.1489082998596,1.0,-505986.093182,378.9945741599193,regan_current_final,90,1,0,30,1,2021_Feb_25_1201,testDotsStepRampPilot,2020.2.5,60.06669800992746,
81,0,81,0,None,None,None,None,383.16569589986466,383.66527269990183,383.16569589986466,384.18328749993816,383.66527269990183,384.16698899981566,384.16698899981566,385.31704109977,0.0,-505982.922285,382.165555159864,regan_current_final,90,1,0,30,1,2021_Feb_25_1201,testDotsStepRampPilot,2020.2.5,60.06669800992746,
82,0,82,0,None,None,None,None,386.33314799983054,386.83641109988093,386.33314799983054,387.35244589997455,386.83641109988093,387.33686979999766,387.33686979999766,388.488114599837,1.0,-505979.754109,385.3336879597744,regan_current_final,90,1,0,30,1,2021_Feb_25_1201,testDotsStepRampPilot,2020.2.5,60.06669800992746,
83,0,83,0,None,None,None,None,389.503613299923,390.00485169980675,389.503613299923,390.52389059984125,390.00485169980675,390.50546159991063,390.50546159991063,391.6567147998139,1.0,-505976.583106,388.5047614598414,regan_current_final,90,1,0,30,1,2021_Feb_25_1201,testDotsStepRampPilot,2020.2.5,60.06669800992746,
84,0,84,0,None,None,None,None,392.67383059998974,393.1764942998998,392.67383059998974,393.69323059986345,393.1764942998998,393.6759453997947,393.6759453997947,394.82716419990174,0.0,-505973.413682,391.67336165981834,regan_current_final,90,1,0,30,1,2021_Feb_25_1201,testDotsStepRampPilot,2020.2.5,60.06669800992746,
85,0,85,0,None,None,None,None,395.8455028999597,396.3466539999936,395.8455028999597,396.8622599998489,396.3466539999936,396.84741959976964,396.84741959976964,398.0132063999772,1.0,-505970.244016,394.84381105990616,regan_current_final,90,1,0,30,1,2021_Feb_25_1201,testDotsStepRampPilot,2020.2.5,60.06669800992746,
86,0,86,0,None,None,None,None,399.02871329989284,399.5325153998565,399.02871329989284,400.0487284997944,399.5325153998565,400.03325669979677,400.03325669979677,401.2006964997854,0.0,-505967.058175,398.0298532599816,regan_current_final,90,1,0,30,1,2021_Feb_25_1201,testDotsStepRampPilot,2020.2.5,60.06669800992746,
87,0,87,0,None,None,None,None,402.2171189999208,402.71901559992693,402.2171189999208,403.2366212999914,402.71901559992693,403.21929339994676,403.21929339994676,404.37010039994493,1.0,-505963.870235,401.2173433597898,regan_current_final,90,1,0,30,1,2021_Feb_25_1201,testDotsStepRampPilot,2020.2.5,60.06669800992746,
88,0,88,0,None,None,None,None,405.3858017998282,405.8881398998201,405.3858017998282,406.404738499783,405.8881398998201,406.3886660998687,406.3886660998687,407.5392520998139,1.0,-505960.701248,404.38674725994935,regan_current_final,90,1,0,30,1,2021_Feb_25_1201,testDotsStepRampPilot,2020.2.5,60.06669800992746,
89,0,89,0,None,None,None,None,408.5554905999452,409.0587569999043,408.5554905999452,409.5924322998617,409.0587569999043,409.5752154998481,409.5752154998481,410.72690519993193,0.0,-505957.531265,407.5558989598183,regan_current_final,90,1,0,30,1,2021_Feb_25_1201,testDotsStepRampPilot,2020.2.5,60.06669800992746,
90,0,90,0,410.7432251998689,424.25661629997194,424.25661629997194,428.25539269996807,428.25539269996807,428.76177969994023,428.25539269996807,429.2960733999498,428.76177969994023,429.27834279998206,429.27834279998206,430.4303355999291,0.0,-505954.344186,410.74355205993635,regan_current_final,90,1,0,30,1,2021_Feb_25_1201,testDotsStepRampPilot,2020.2.5,60.06669800992746,
91,0,91,0,None,None,None,None,431.4480408998206,431.94826729991473,431.4480408998206,432.4640731997788,431.94826729991473,432.44870249996893,432.44870249996893,433.5992721999064,0.0,-505934.640722,430.4469824599335,regan_current_final,90,1,0,30,1,2021_Feb_25_1201,testDotsStepRampPilot,2020.2.5,60.06669800992746,
92,0,92,0,None,None,None,None,434.6171752999071,435.1181962999981,434.6171752999071,435.63475559977815,435.1181962999981,435.6184477999341,435.6184477999341,436.78557679988444,0.0,-505931.47199,433.6159190599108,regan_current_final,90,1,0,30,1,2021_Feb_25_1201,testDotsStepRampPilot,2020.2.5,60.06669800992746,
93,0,93,0,None,None,None,None,437.8033521999605,438.30422189994715,437.8033521999605,438.8217861999292,438.30422189994715,438.80501019977964,438.80501019977964,439.9731128998101,1.0,-505928.285108,436.80222365988885,regan_current_final,90,1,0,30,1,2021_Feb_25_1201,testDotsStepRampPilot,2020.2.5,60.06669800992746,
94,0,94,0,None,None,None,None,440.9913282999769,441.5071899998002,440.9913282999769,442.02479019993916,441.5071899998002,442.00872019981034,442.00872019981034,443.1594442999922,0.0,-505925.097202,439.9897597598145,regan_current_final,90,1,0,30,1,2021_Feb_25_1201,testDotsStepRampPilot,2020.2.5,60.06669800992746,
95,0,95,0,None,None,None,None,444.1783314999193,444.6934699998237,444.1783314999193,445.21059969998896,444.6934699998237,445.1951781997923,445.1951781997923,446.36211599991657,0.0,-505921.910737,443.1760911599966,regan_current_final,90,1,0,30,1,2021_Feb_25_1201,testDotsStepRampPilot,2020.2.5,60.06669800992746,
96,0,96,0,None,None,None,None,447.3794335999992,447.8803594999481,447.3794335999992,448.3979627999943,447.8803594999481,448.38044469989836,448.38044469989836,449.5481464997865,0.0,-505918.707644,446.378762859921,regan_current_final,90,1,0,30,1,2021_Feb_25_1201,testDotsStepRampPilot,2020.2.5,60.06669800992746,
97,0,97,0,None,None,None,None,450.56436479999684,451.06683609983884,450.56436479999684,451.5846825998742,451.06683609983884,451.5677802998107,451.5677802998107,452.73512149997987,1.0,-505915.522483,449.56479335979094,regan_current_final,90,1,0,30,1,2021_Feb_25_1201,testDotsStepRampPilot,2020.2.5,60.06669800992746,
98,0,98,0,None,None,None,None,453.75303799984977,454.2527652999852,453.75303799984977,454.77126379986294,454.2527652999852,454.7542640999891,454.7542640999891,455.9049311999697,1.0,-505912.335699,452.7517683599843,regan_current_final,90,1,0,30,1,2021_Feb_25_1201,testDotsStepRampPilot,2020.2.5,60.06669800992746,
99,0,99,0,None,None,None,None,456.9203080998268,457.4225675999187,456.9203080998268,457.9401186998002,457.4225675999187,457.9246347998269,457.9246347998269,459.0747987998184,1.0,-505909.166441,455.92157805997414,regan_current_final,90,1,0,30,1,2021_Feb_25_1201,testDotsStepRampPilot,2020.2.5,60.06669800992746,
