trials.thisRepN,trials.thisTrialN,trials.thisN,trials.thisIndex,break_text.started,break_text.stopped,postbreak_text.started,postbreak_text.stopped,fixation1.started,fixation1.stopped,red_dot.started,red_dot.stopped,fixation2.started,fixation2.stopped,pursuit_or_saccade_dot.started,pursuit_or_saccade_dot.stopped,pursuit_saccade_isLeft,pupil_timestamp,psychopy_timestamp,participant,trials_per_condition,pursuit_or_saccade,practice_version,break_every_n_trials,pupil_on,date,expName,psychopyVersion,frameRate,
0,0,0,0,None,None,None,None,45.27808970003389,45.79487209999934,45.27808970003389,46.31019400013611,45.79487209999934,46.29470030008815,46.29470030008815,47.41076950007118,1.0,-505464.393625,44.24171119013335,regn_new_final,90,1,0,30,1,2021_Feb_25_1216,testDotsStepRampPilot,2020.2.5,None,
1,0,1,0,None,None,None,None,48.42699320008978,48.93116810009815,48.42699320008978,49.44780490011908,48.93116810009815,49.43029829999432,49.43029829999432,50.54961029998958,0.0,-505461.218526,47.427454310073514,regn_new_final,90,1,0,30,1,2021_Feb_25_1216,testDotsStepRampPilot,2020.2.5,None,
2,0,2,0,None,None,None,None,51.566240899963304,52.0655350999441,51.566240899963304,52.5845443001017,52.0655350999441,52.56704190000892,52.56704190000892,53.68446539994329,1.0,-505458.080029,50.56629510999191,regn_new_final,90,1,0,30,1,2021_Feb_25_1216,testDotsStepRampPilot,2020.2.5,None,
3,0,3,0,None,None,None,None,54.70060720015317,55.20365110016428,54.70060720015317,55.72095880005509,55.20365110016428,55.70558820012957,55.70558820012957,56.82234339998104,1.0,-505454.945093,53.701150209945624,regn_new_final,90,1,0,30,1,2021_Feb_25_1216,testDotsStepRampPilot,2020.2.5,None,
4,0,4,0,None,None,None,None,57.84048629994504,58.33900359994732,57.84048629994504,58.857419200008735,58.33900359994732,58.839247700059786,58.839247700059786,59.95852870005183,0.0,-505451.806389,56.83902820998337,regn_new_final,90,1,0,30,1,2021_Feb_25_1216,testDotsStepRampPilot,2020.2.5,None,
5,0,5,0,None,None,None,None,60.97410440002568,61.476035200059414,60.97410440002568,61.99368100007996,61.476035200059414,61.97741560009308,61.97741560009308,63.09311669995077,1.0,-505448.671295,59.97521351005416,regn_new_final,90,1,0,30,1,2021_Feb_25_1216,testDotsStepRampPilot,2020.2.5,None,
6,0,6,0,None,None,None,None,64.11055770004168,64.61259669996798,64.11055770004168,65.13099199999124,64.61259669996798,65.1138669999782,65.1138669999782,66.23228930006735,1.0,-505445.536371,63.1098015099531,regn_new_final,90,1,0,30,1,2021_Feb_25_1216,testDotsStepRampPilot,2020.2.5,None,
7,0,7,0,None,None,None,None,67.24925610003993,67.74949950003065,67.24925610003993,68.26519980002195,67.74949950003065,68.25047770002857,68.25047770002857,69.36663200007752,1.0,-505442.39807,66.24897411006968,regn_new_final,90,1,0,30,1,2021_Feb_25_1216,testDotsStepRampPilot,2020.2.5,None,
8,0,8,0,None,None,None,None,70.38115609996021,70.88616190012544,70.38115609996021,71.41994199994951,70.88616190012544,71.40257419995032,71.40257419995032,72.52021240000613,0.0,-505439.263769,69.38331681007985,regn_new_final,90,1,0,30,1,2021_Feb_25_1216,testDotsStepRampPilot,2020.2.5,None,
9,0,9,0,None,None,None,None,73.53627940011211,74.03909500013106,73.53627940011211,74.55465220008045,74.03909500013106,74.53967240010388,74.53967240010388,75.65614520013332,0.0,-505436.109757,72.53689721000846,regn_new_final,90,1,0,30,1,2021_Feb_25_1216,testDotsStepRampPilot,2020.2.5,None,
10,0,10,0,None,None,None,None,76.67240889999084,77.17519920016639,76.67240889999084,77.69223330006935,77.17519920016639,77.67505419999361,77.67505419999361,78.79396239994094,1.0,-505432.974079,75.67283001013566,regn_new_final,90,1,0,30,1,2021_Feb_25_1216,testDotsStepRampPilot,2020.2.5,None,
11,0,11,0,None,None,None,None,79.8114923001267,80.32842519995756,79.8114923001267,80.84547029994428,80.32842519995756,80.82858550013043,80.82858550013043,81.94758850010112,1.0,-505429.835577,78.81064720994327,regn_new_final,90,1,0,30,1,2021_Feb_25_1216,testDotsStepRampPilot,2020.2.5,None,
12,0,12,0,None,None,None,None,82.96370310010388,83.46369659993798,82.96370310010388,83.98168259998783,83.46369659993798,83.9665801001247,83.9665801001247,85.08257389999926,1.0,-505426.682835,81.96427331010345,regn_new_final,90,1,0,30,1,2021_Feb_25_1216,testDotsStepRampPilot,2020.2.5,None,
13,0,13,0,None,None,None,None,86.09950729995035,86.6019462000113,86.09950729995035,87.1341693000868,86.6019462000113,87.11751160002314,87.11751160002314,88.2363267999608,1.0,-505423.547624,85.09925871000159,regn_new_final,90,1,0,30,1,2021_Feb_25_1216,testDotsStepRampPilot,2020.2.5,None,
14,0,14,0,None,None,None,None,89.2523799999617,89.75531739997678,89.2523799999617,90.28931950009428,89.75531739997678,90.27058230014518,90.27058230014518,91.38949450012296,0.0,-505420.393245,88.25301160996314,regn_new_final,90,1,0,30,1,2021_Feb_25_1216,testDotsStepRampPilot,2020.2.5,None,
15,0,15,0,None,None,None,None,92.40540309995413,92.90757709997706,92.40540309995413,93.4244822000619,92.90757709997706,93.4089858001098,93.4089858001098,94.52563709998503,0.0,-505417.240989,91.4061793101253,regn_new_final,90,1,0,30,1,2021_Feb_25_1216,testDotsStepRampPilot,2020.2.5,None,
16,0,16,0,None,None,None,None,95.54287340003066,96.04355540010147,95.54287340003066,96.56174860009924,96.04355540010147,96.54386590002105,96.54386590002105,97.66422850009985,1.0,-505414.103802,94.54232190998736,regn_new_final,90,1,0,30,1,2021_Feb_25_1216,testDotsStepRampPilot,2020.2.5,None,
17,0,17,0,None,None,None,None,98.67991250008345,99.18067699996755,98.67991250008345,99.6969547001645,99.18067699996755,99.68127220007591,99.68127220007591,100.79797210008837,1.0,-505410.965821,97.68091331010218,regn_new_final,90,1,0,30,1,2021_Feb_25_1216,testDotsStepRampPilot,2020.2.5,None,
18,0,18,0,None,None,None,None,101.81400110013783,102.31833790009841,101.81400110013783,102.8498420000542,102.31833790009841,102.83317720005289,102.83317720005289,103.95217499998398,1.0,-505407.831829,100.8146569100907,regn_new_final,90,1,0,30,1,2021_Feb_25_1216,testDotsStepRampPilot,2020.2.5,None,
19,0,19,0,None,None,None,None,104.96907670004293,105.47044429997914,104.96907670004293,105.98623930010945,105.47044429997914,105.97132440004498,105.97132440004498,107.08772230008617,1.0,-505404.677896,103.96885980998631,regn_new_final,90,1,0,30,1,2021_Feb_25_1216,testDotsStepRampPilot,2020.2.5,None,
20,0,20,0,None,None,None,None,108.10325570008717,108.60574060003273,108.10325570008717,109.12564150011167,108.60574060003273,109.1059055000078,109.1059055000078,110.22595390002243,1.0,-505401.54264,107.1044071100885,regn_new_final,90,1,0,30,1,2021_Feb_25_1216,testDotsStepRampPilot,2020.2.5,None,
21,0,21,0,None,None,None,None,111.24253399996087,111.74368740012869,111.24253399996087,112.26014819997363,111.74368740012869,112.24416560004465,112.24416560004465,113.36047019995749,0.0,-505398.403777,110.24263871002476,regn_new_final,90,1,0,30,1,2021_Feb_25_1216,testDotsStepRampPilot,2020.2.5,None,
22,0,22,0,None,None,None,None,114.37655899999663,114.88043830008246,114.37655899999663,115.39766700007021,114.88043830008246,115.3794545000419,115.3794545000419,116.4985990000423,0.0,-505395.269961,113.37715500995982,regn_new_final,90,1,0,30,1,2021_Feb_25_1216,testDotsStepRampPilot,2020.2.5,None,
23,0,23,0,None,None,None,None,117.51448850007728,118.01481750002131,117.51448850007728,118.5343247000128,118.01481750002131,118.51580110006034,118.51580110006034,119.63401030004025,0.0,-505392.131064,116.51528381004464,regn_new_final,90,1,0,30,1,2021_Feb_25_1216,testDotsStepRampPilot,2020.2.5,None,
24,0,24,0,None,None,None,None,120.64975330000743,121.15315170004033,120.64975330000743,121.68632750003599,121.15315170004033,121.66865440015681,121.66865440015681,122.78635920002125,1.0,-505388.99568,119.65069511004258,regn_new_final,90,1,0,30,1,2021_Feb_25_1216,testDotsStepRampPilot,2020.2.5,None,
25,0,25,0,None,None,None,None,123.80309800012037,124.30570379993878,123.80309800012037,124.82245900016278,124.30570379993878,124.80716109997593,124.80716109997593,125.92275320016779,0.0,-505385.843297,122.80304401002358,regn_new_final,90,1,0,30,1,2021_Feb_25_1216,testDotsStepRampPilot,2020.2.5,None,
26,0,26,0,None,None,None,None,126.93975970009342,127.44179249997251,126.93975970009342,127.96017840015702,127.44179249997251,127.94210360012949,127.94210360012949,129.05991360009648,0.0,-505382.706781,125.93943801017012,regn_new_final,90,1,0,30,1,2021_Feb_25_1216,testDotsStepRampPilot,2020.2.5,None,
27,0,27,0,None,None,None,None,130.07431830000132,130.57927000010386,130.07431830000132,131.09532369999215,130.57927000010386,131.08007599995472,131.08007599995472,132.19680420006625,1.0,-505379.570135,129.07659841009882,regn_new_final,90,1,0,30,1,2021_Feb_25_1216,testDotsStepRampPilot,2020.2.5,None,
28,0,28,0,None,None,None,None,133.2135962001048,133.7169201001525,133.2135962001048,134.24878609995358,133.7169201001525,134.2311611000914,134.2311611000914,135.34983470011503,0.0,-505376.433051,132.2134890100686,regn_new_final,90,1,0,30,1,2021_Feb_25_1216,testDotsStepRampPilot,2020.2.5,None,
29,0,29,0,None,None,None,None,136.36751490016468,136.86808599997312,136.36751490016468,137.38477659993805,136.86808599997312,137.3682162000332,137.3682162000332,138.48646820010617,0.0,-505373.280017,135.36651951011737,regn_new_final,90,1,0,30,1,2021_Feb_25_1216,testDotsStepRampPilot,2020.2.5,None,
30,0,30,0,138.5043061999604,156.1711999999825,156.1711999999825,160.166722800117,160.166722800117,160.6743139999453,160.166722800117,161.19312619999982,160.6743139999453,161.17546660010703,161.17546660010703,162.2941082001198,1.0,-505370.142315,138.50315301010852,regn_new_final,90,1,0,30,1,2021_Feb_25_1216,testDotsStepRampPilot,2020.2.5,None,
31,0,31,0,None,None,None,None,163.30991209996864,163.81220149993896,163.30991209996864,164.32823069998994,163.81220149993896,164.31331680016592,164.31331680016592,165.43189590005204,0.0,-505346.336467,162.31079301012215,regn_new_final,90,1,0,30,1,2021_Feb_25_1216,testDotsStepRampPilot,2020.2.5,None,
32,0,32,0,None,None,None,None,166.4490251999814,166.94845520006493,166.4490251999814,167.46603140002117,166.94845520006493,167.4480465000961,167.4480465000961,168.56731540011242,0.0,-505343.197818,165.4485807100544,regn_new_final,90,1,0,30,1,2021_Feb_25_1216,testDotsStepRampPilot,2020.2.5,None,
33,0,33,0,None,None,None,None,169.58270390005782,170.08711510011926,169.58270390005782,170.6193657000549,170.08711510011926,170.60334759997204,170.60334759997204,171.72097070002928,1.0,-505340.062625,168.58400021011477,regn_new_final,90,1,0,30,1,2021_Feb_25_1216,testDotsStepRampPilot,2020.2.5,None,
34,0,34,0,None,None,None,None,172.7372628999874,173.23844780004583,172.7372628999874,173.75458760000765,173.23844780004583,173.73825770011172,173.73825770011172,174.8561772000976,0.0,-505336.908559,171.73765551003163,regn_new_final,90,1,0,30,1,2021_Feb_25_1216,testDotsStepRampPilot,2020.2.5,None,
35,0,35,0,None,None,None,None,175.87382720015012,176.37555809994228,175.87382720015012,176.90946820005774,176.37555809994228,176.89233510009944,176.89233510009944,178.0088015999645,1.0,-505333.773339,174.87286201009994,regn_new_final,90,1,0,30,1,2021_Feb_25_1216,testDotsStepRampPilot,2020.2.5,None,
36,0,36,0,None,None,None,None,179.0247961001005,179.5292591000907,179.0247961001005,180.0618475000374,179.5292591000907,180.04388400004245,180.04388400004245,181.1616980000399,1.0,-505330.621202,178.02548640996685,regn_new_final,90,1,0,30,1,2021_Feb_25_1216,testDotsStepRampPilot,2020.2.5,None,
37,0,37,0,None,None,None,None,182.17870189994574,182.6815222001169,182.17870189994574,183.21558349998668,182.6815222001169,183.1971950000152,183.1971950000152,184.31614800007083,0.0,-505327.467869,181.17838281004225,regn_new_final,90,1,0,30,1,2021_Feb_25_1216,testDotsStepRampPilot,2020.2.5,None,
38,0,38,0,None,None,None,None,185.33364960015751,185.83456080011092,185.33364960015751,186.3497941000387,185.83456080011092,186.33426130004227,186.33426130004227,187.45194900012575,0.0,-505324.31347,184.33283281007317,regn_new_final,90,1,0,30,1,2021_Feb_25_1216,testDotsStepRampPilot,2020.2.5,None,
39,0,39,0,None,None,None,None,188.46838199999183,188.96953170001507,188.46838199999183,189.4882267001085,188.96953170001507,189.47173790005036,189.47173790005036,190.58848040015437,1.0,-505321.178115,187.4686338101281,regn_new_final,90,1,0,30,1,2021_Feb_25_1216,testDotsStepRampPilot,2020.2.5,None,
40,0,40,0,None,None,None,None,191.60459110001102,192.1055972999893,191.60459110001102,192.62313250009902,192.1055972999893,192.60750579996966,192.60750579996966,193.72456940007396,0.0,-505318.041199,190.6051652101567,regn_new_final,90,1,0,30,1,2021_Feb_25_1216,testDotsStepRampPilot,2020.2.5,None,
41,0,41,0,None,None,None,None,194.74151240009815,195.24366499995813,194.74151240009815,195.7593861001078,195.24366499995813,195.74415430007502,195.74415430007502,196.86143889999948,0.0,-505314.905795,193.7412542100763,regn_new_final,90,1,0,30,1,2021_Feb_25_1216,testDotsStepRampPilot,2020.2.5,None,
42,0,42,0,None,None,None,None,197.87978429999202,198.37959210015833,197.87978429999202,198.89635620010085,198.37959210015833,198.87953629996628,198.87953629996628,199.9985667001456,1.0,-505311.766764,196.87812371000183,regn_new_final,90,1,0,30,1,2021_Feb_25_1216,testDotsStepRampPilot,2020.2.5,None,
43,0,43,0,None,None,None,None,201.01614800002426,201.51593650016002,201.01614800002426,202.03265840001404,201.51593650016002,202.01743960008025,202.01743960008025,203.13422100013122,0.0,-505308.631002,200.01525151014795,regn_new_final,90,1,0,30,1,2021_Feb_25_1216,testDotsStepRampPilot,2020.2.5,None,
44,0,44,0,None,None,None,None,204.1503622001037,204.65309239993803,204.1503622001037,205.1704533000011,204.65309239993803,205.15375149995089,205.15375149995089,206.27203400013968,0.0,-505305.495872,203.15090581013357,regn_new_final,90,1,0,30,1,2021_Feb_25_1216,testDotsStepRampPilot,2020.2.5,None,
45,0,45,0,None,None,None,None,207.28857700014487,207.78836719994433,207.28857700014487,208.30617670016363,207.78836719994433,208.2904118001461,208.2904118001461,209.40688970009796,0.0,-505302.357866,206.28871881014203,regn_new_final,90,1,0,30,1,2021_Feb_25_1216,testDotsStepRampPilot,2020.2.5,None,
46,0,46,0,None,None,None,None,210.42334400000982,210.9256782999728,210.42334400000982,211.44200629997067,210.9256782999728,211.42680820007809,211.42680820007809,212.54432690003887,0.0,-505299.223014,209.4235745101003,regn_new_final,90,1,0,30,1,2021_Feb_25_1216,testDotsStepRampPilot,2020.2.5,None,
47,0,47,0,None,None,None,None,213.56283119996078,214.06153900013305,213.56283119996078,214.58010570006445,214.06153900013305,214.56186480005272,214.56186480005272,215.67964019998908,1.0,-505296.083595,212.5610117100412,regn_new_final,90,1,0,30,1,2021_Feb_25_1216,testDotsStepRampPilot,2020.2.5,None,
48,0,48,0,None,None,None,None,216.6960672000423,217.19790220004506,216.6960672000423,217.71563310013153,217.19790220004506,217.69873009994626,217.69873009994626,218.81623590015806,1.0,-505292.950076,215.69632500999143,regn_new_final,90,1,0,30,1,2021_Feb_25_1216,testDotsStepRampPilot,2020.2.5,None,
49,0,49,0,None,None,None,None,219.83240519999526,220.33442359999754,219.83240519999526,220.854470100021,220.33442359999754,220.8357176000718,220.8357176000718,221.95385910011828,1.0,-505289.813828,218.8329207101604,regn_new_final,90,1,0,30,1,2021_Feb_25_1216,testDotsStepRampPilot,2020.2.5,None,
50,0,50,0,None,None,None,None,222.9706173001323,223.47114110016264,222.9706173001323,223.98911510012113,223.47114110016264,223.97290990012698,223.97290990012698,225.08992639998905,0.0,-505286.675634,221.97054391012063,regn_new_final,90,1,0,30,1,2021_Feb_25_1216,testDotsStepRampPilot,2020.2.5,None,
51,0,51,0,None,None,None,None,226.10668980004266,226.60837349994108,226.10668980004266,227.14267580001615,226.60837349994108,227.12389390007593,227.12389390007593,228.24230140005238,0.0,-505283.540384,225.1066112099914,regn_new_final,90,1,0,30,1,2021_Feb_25_1216,testDotsStepRampPilot,2020.2.5,None,
52,0,52,0,None,None,None,None,229.25855570007116,229.7626213999465,229.25855570007116,230.29486200003885,229.7626213999465,230.27717990009114,230.27717990009114,231.39666800014675,0.0,-505280.387228,228.25898621005473,regn_new_final,90,1,0,30,1,2021_Feb_25_1216,testDotsStepRampPilot,2020.2.5,None,
53,0,53,0,None,None,None,None,232.41334239998832,232.91578090004623,232.41334239998832,233.44767590006813,232.91578090004623,233.43087829998694,233.43087829998694,234.54816570016555,1.0,-505277.232978,231.4133528101491,regn_new_final,90,1,0,30,1,2021_Feb_25_1216,testDotsStepRampPilot,2020.2.5,None,
54,0,54,0,None,None,None,None,235.56468089995906,236.06792790000327,235.56468089995906,236.58460719999857,236.06792790000327,236.5688986000605,236.5688986000605,237.68494140007533,0.0,-505274.082024,234.5648505101679,regn_new_final,90,1,0,30,1,2021_Feb_25_1216,testDotsStepRampPilot,2020.2.5,None,
55,0,55,0,None,None,None,None,238.7021385000553,239.20375610003248,238.7021385000553,239.72050840011798,239.20375610003248,239.70384029997513,239.70384029997513,240.82274159998633,0.0,-505270.944704,237.70162621007768,regn_new_final,90,1,0,30,1,2021_Feb_25_1216,testDotsStepRampPilot,2020.2.5,None,
56,0,56,0,None,None,None,None,241.83787650009617,242.339554999955,241.83787650009617,242.85782640008256,242.339554999955,242.83998230006546,242.83998230006546,243.95823070011102,1.0,-505267.807449,240.83942640998868,regn_new_final,90,1,0,30,1,2021_Feb_25_1216,testDotsStepRampPilot,2020.2.5,None,
57,0,57,0,None,None,None,None,244.97448260011151,245.47733050002716,244.97448260011151,245.9933544001542,245.47733050002716,245.97705820016563,245.97705820016563,247.09477289998904,1.0,-505264.672082,243.97491551011336,regn_new_final,90,1,0,30,1,2021_Feb_25_1216,testDotsStepRampPilot,2020.2.5,None,
58,0,58,0,None,None,None,None,248.11185079999268,248.61275490000844,248.11185079999268,249.13114720000885,248.61275490000844,249.11313059995882,249.11313059995882,250.2315893000923,0.0,-505261.5345,247.11145770999138,regn_new_final,90,1,0,30,1,2021_Feb_25_1216,testDotsStepRampPilot,2020.2.5,None,
59,0,59,0,None,None,None,None,251.24806380015798,251.7491109999828,251.24806380015798,252.26658529997803,251.7491109999828,252.2512076999992,252.2512076999992,253.36727249994874,1.0,-505258.397974,250.24827411009466,regn_new_final,90,1,0,30,1,2021_Feb_25_1216,testDotsStepRampPilot,2020.2.5,None,
60,0,60,0,253.38564869994298,292.5234375,292.5234375,296.5216751000844,296.5216751000844,297.02725749998353,296.5216751000844,297.5464582000859,297.02725749998353,297.5279341000132,297.5279341000132,298.6461039001588,0.0,-505255.263206,253.3839573099511,regn_new_final,90,1,0,30,1,2021_Feb_25_1216,testDotsStepRampPilot,2020.2.5,None,
61,0,61,0,None,None,None,None,299.661741200136,300.1657002000138,299.661741200136,300.69895160011947,300.1657002000138,300.6810846000444,300.6810846000444,301.79931110003963,0.0,-505209.983596,298.6627887101611,regn_new_final,90,1,0,30,1,2021_Feb_25_1216,testDotsStepRampPilot,2020.2.5,None,
62,0,62,0,None,None,None,None,302.81462009996176,303.3184426999651,302.81462009996176,303.83390279999,303.3184426999651,303.81848810007796,303.81848810007796,304.93650120007806,0.0,-505206.831009,301.815995910042,regn_new_final,90,1,0,30,1,2021_Feb_25_1216,testDotsStepRampPilot,2020.2.5,None,
63,0,63,0,None,None,None,None,305.95335540012456,306.4540671999566,305.95335540012456,306.97200930002145,306.4540671999566,306.9539942999836,306.9539942999836,308.0733829999808,1.0,-505203.693009,304.9531860100804,regn_new_final,90,1,0,30,1,2021_Feb_25_1216,testDotsStepRampPilot,2020.2.5,None,
64,0,64,0,None,None,None,None,309.088125300128,309.5915361000225,309.088125300128,310.10744319995865,309.5915361000225,310.0918862000108,310.0918862000108,311.2080549001694,1.0,-505200.556519,308.09006780998317,regn_new_final,90,1,0,30,1,2021_Feb_25_1216,testDotsStepRampPilot,2020.2.5,None,
65,0,65,0,None,None,None,None,312.22560720006004,312.72780270013027,312.22560720006004,313.24493269994855,312.72780270013027,313.2268638999667,313.2268638999667,314.3464781001676,0.0,-505197.42149,311.2247397101717,regn_new_final,90,1,0,30,1,2021_Feb_25_1216,testDotsStepRampPilot,2020.2.5,None,
66,0,66,0,None,None,None,None,315.36465810006484,315.8627098000143,315.36465810006484,316.3815657000523,315.8627098000143,316.3635573000647,316.3635573000647,317.4825490000658,1.0,-505194.282905,314.36316291016993,regn_new_final,90,1,0,30,1,2021_Feb_25_1216,testDotsStepRampPilot,2020.2.5,None,
67,0,67,0,None,None,None,None,318.4975515999831,319.0000996000599,318.4975515999831,319.51663390011527,319.0000996000599,319.50142470002174,319.50142470002174,320.61786030000076,0.0,-505191.147229,317.4992338100681,regn_new_final,90,1,0,30,1,2021_Feb_25_1216,testDotsStepRampPilot,2020.2.5,None,
68,0,68,0,None,None,None,None,321.6359216000419,322.13633030001074,321.6359216000419,322.653844299959,322.13633030001074,322.6366870000493,322.6366870000493,323.75578430015594,1.0,-505188.010471,320.6345451100031,regn_new_final,90,1,0,30,1,2021_Feb_25_1216,testDotsStepRampPilot,2020.2.5,None,
69,0,69,0,None,None,None,None,324.7723151999526,325.2732520001009,324.7723151999526,325.79019009997137,325.2732520001009,325.77359110000543,325.77359110000543,326.8905110999476,1.0,-505184.873658,323.7724691101583,regn_new_final,90,1,0,30,1,2021_Feb_25_1216,testDotsStepRampPilot,2020.2.5,None,
70,0,70,0,None,None,None,None,327.90840640012175,328.41020549996756,327.90840640012175,328.9276563001331,328.41020549996756,328.9098337001633,328.9098337001633,330.0284023999702,1.0,-505181.738914,326.90719590994996,regn_new_final,90,1,0,30,1,2021_Feb_25_1216,testDotsStepRampPilot,2020.2.5,None,
71,0,71,0,None,None,None,None,331.0440452999901,331.5450759001542,331.0440452999901,332.0626771999523,331.5450759001542,332.04587800009176,332.04587800009176,333.16464220010675,0.0,-505178.601931,330.04508720997256,regn_new_final,90,1,0,30,1,2021_Feb_25_1216,testDotsStepRampPilot,2020.2.5,None,
72,0,72,0,None,None,None,None,334.18183010001667,334.68232250004075,334.18183010001667,335.19907109998167,334.68232250004075,335.1827293999959,335.1827293999959,336.2999071001541,1.0,-505175.465782,333.1813270101091,regn_new_final,90,1,0,30,1,2021_Feb_25_1216,testDotsStepRampPilot,2020.2.5,None,
73,0,73,0,None,None,None,None,337.3164997000713,337.8192913001403,337.3164997000713,338.3369140001014,337.8192913001403,338.3191444000695,338.3191444000695,339.4380280999467,1.0,-505172.329841,336.31659191015643,regn_new_final,90,1,0,30,1,2021_Feb_25_1216,testDotsStepRampPilot,2020.2.5,None,
74,0,74,0,None,None,None,None,340.4556497000158,340.97176169999875,340.4556497000158,341.4889490001369,340.97176169999875,341.4722972000018,341.4722972000018,342.59103689994663,1.0,-505169.191795,339.454712909949,regn_new_final,90,1,0,30,1,2021_Feb_25_1216,testDotsStepRampPilot,2020.2.5,None,
75,0,75,0,None,None,None,None,343.6064765001647,344.10766550013795,343.6064765001647,344.62555280001834,344.10766550013795,344.61029570014216,344.61029570014216,345.72673260001466,0.0,-505166.039058,342.607721709949,regn_new_final,90,1,0,30,1,2021_Feb_25_1216,testDotsStepRampPilot,2020.2.5,None,
76,0,76,0,None,None,None,None,346.74304510001093,347.2451132000424,346.74304510001093,347.7614526001271,347.2451132000424,347.74629439995624,347.74629439995624,348.8639483000152,0.0,-505162.903078,345.743417410017,regn_new_final,90,1,0,30,1,2021_Feb_25_1216,testDotsStepRampPilot,2020.2.5,None,
77,0,77,0,None,None,None,None,349.88197119999677,350.38094340008684,349.88197119999677,350.89961720001884,350.38094340008684,350.8826448000036,350.8826448000036,352.00041149999015,1.0,-505159.764295,348.8806331100175,regn_new_final,90,1,0,30,1,2021_Feb_25_1216,testDotsStepRampPilot,2020.2.5,None,
78,0,78,0,None,None,None,None,353.01612680009566,353.518707399955,353.01612680009566,354.03406660002656,353.518707399955,354.01846079993993,354.01846079993993,355.1353357001208,1.0,-505156.629325,352.0170963099925,regn_new_final,90,1,0,30,1,2021_Feb_25_1216,testDotsStepRampPilot,2020.2.5,None,
79,0,79,0,None,None,None,None,356.15331650013104,356.65535210003145,356.15331650013104,357.1721902999561,356.65535210003145,357.1560965999961,357.1560965999961,358.2737157000229,0.0,-505153.493527,355.1520205101231,regn_new_final,90,1,0,30,1,2021_Feb_25_1216,testDotsStepRampPilot,2020.2.5,None,
80,0,80,0,None,None,None,None,359.2912643000018,359.79214880010113,359.2912643000018,360.3082412001677,359.79214880010113,360.29215240012854,360.29215240012854,361.4088957000058,0.0,-505150.356087,358.2904005100252,regn_new_final,90,1,0,30,1,2021_Feb_25_1216,testDotsStepRampPilot,2020.2.5,None,
81,0,81,0,None,None,None,None,362.42673710011877,362.92803260008805,362.42673710011877,363.4620144001674,362.92803260008805,363.4436590000987,363.4436590000987,364.56358320009895,1.0,-505147.221078,361.42558051000816,regn_new_final,90,1,0,30,1,2021_Feb_25_1216,testDotsStepRampPilot,2020.2.5,None,
82,0,82,0,None,None,None,None,365.58021800010465,366.08123790007085,365.58021800010465,366.5967334001325,366.08123790007085,366.58192629995756,366.58192629995756,367.6999401000794,0.0,-505144.066421,364.5802680101013,regn_new_final,90,1,0,30,1,2021_Feb_25_1216,testDotsStepRampPilot,2020.2.5,None,
83,0,83,0,None,None,None,None,368.7167249000631,369.2166991000995,368.7167249000631,369.73508720006794,369.2166991000995,369.71684750006534,369.71684750006534,370.8347634000238,1.0,-505140.929369,367.71662491008175,regn_new_final,90,1,0,30,1,2021_Feb_25_1216,testDotsStepRampPilot,2020.2.5,None,
84,0,84,0,None,None,None,None,371.8507636000868,372.35316550009884,371.8507636000868,372.87082690000534,372.35316550009884,372.85520650004037,372.85520650004037,373.97098940005526,0.0,-505137.795005,370.85144821002615,regn_new_final,90,1,0,30,1,2021_Feb_25_1216,testDotsStepRampPilot,2020.2.5,None,
85,0,85,0,None,None,None,None,374.987957400037,375.48987930011936,374.987957400037,376.0093978999648,375.48987930011936,375.9901382001117,375.9901382001117,377.108896400081,0.0,-505134.659104,373.9876742100576,regn_new_final,90,1,0,30,1,2021_Feb_25_1216,testDotsStepRampPilot,2020.2.5,None,
86,0,86,0,None,None,None,None,378.12546580005437,378.62589040002786,378.12546580005437,379.14332600007765,378.62589040002786,379.12698870012537,379.12698870012537,380.24485330004245,1.0,-505131.52081,377.12558121008334,regn_new_final,90,1,0,30,1,2021_Feb_25_1216,testDotsStepRampPilot,2020.2.5,None,
87,0,87,0,None,None,None,None,381.2607587999664,381.76385710015893,381.2607587999664,382.27959559997544,381.76385710015893,382.26463450002484,382.26463450002484,383.3835183000192,1.0,-505128.385119,380.2615381100448,regn_new_final,90,1,0,30,1,2021_Feb_25_1216,testDotsStepRampPilot,2020.2.5,None,
88,0,88,0,None,None,None,None,384.4013487000484,384.89845730015077,384.4013487000484,385.41653060005046,384.89845730015077,385.400191700086,385.400191700086,386.5189497999381,1.0,-505125.245372,383.40020311002155,regn_new_final,90,1,0,30,1,2021_Feb_25_1216,testDotsStepRampPilot,2020.2.5,None,
89,0,89,0,None,None,None,None,387.53571680001915,388.03639210015535,387.53571680001915,388.5525318,388.03639210015535,388.5370781000238,388.5370781000238,389.65360960015096,0.0,-505122.111075,386.5356346099405,regn_new_final,90,1,0,30,1,2021_Feb_25_1216,testDotsStepRampPilot,2020.2.5,None,
90,0,90,0,389.67184390011244,391.9393655001186,391.9393655001186,395.935252700001,395.935252700001,396.445054900134,395.935252700001,396.96057080011815,396.445054900134,396.9449261999689,396.9449261999689,398.06241809995845,0.0,-505118.976623,389.6702944101533,regn_new_final,90,1,0,30,1,2021_Feb_25_1216,testDotsStepRampPilot,2020.2.5,None,
91,0,91,0,None,None,None,None,399.07782920007594,399.5808614001144,399.07782920007594,400.09796270006336,399.5808614001144,400.08086530002765,400.08086530002765,401.1990396999754,1.0,-505110.567522,398.0791029099608,regn_new_final,90,1,0,30,1,2021_Feb_25_1216,testDotsStepRampPilot,2020.2.5,None,
92,0,92,0,None,None,None,None,402.21357020013966,402.7162057000678,402.21357020013966,403.2338034999557,402.7162057000678,403.2186730999965,403.2186730999965,404.3351176001597,0.0,-505107.431357,401.21572450997775,regn_new_final,90,1,0,30,1,2021_Feb_25_1216,testDotsStepRampPilot,2020.2.5,None,
93,0,93,0,None,None,None,None,405.3519725999795,405.85474730003625,405.3519725999795,406.3871693999972,405.85474730003625,406.3715878999792,406.3715878999792,407.48870080010965,0.0,-505104.294984,404.35180241016207,regn_new_final,90,1,0,30,1,2021_Feb_25_1216,testDotsStepRampPilot,2020.2.5,None,
94,0,94,0,None,None,None,None,408.50651980005205,409.0075799000915,408.50651980005205,409.5402385999914,409.0075799000915,409.52282940014265,409.52282940014265,410.64155660010874,1.0,-505101.140955,407.505385610112,regn_new_final,90,1,0,30,1,2021_Feb_25_1216,testDotsStepRampPilot,2020.2.5,None,
95,0,95,0,None,None,None,None,411.6597239000257,412.1608476000838,411.6597239000257,412.693526300136,412.1608476000838,412.67617600015365,412.67617600015365,413.79607730009593,1.0,-505097.988026,410.6582414101111,regn_new_final,90,1,0,30,1,2021_Feb_25_1216,testDotsStepRampPilot,2020.2.5,None,
96,0,96,0,None,None,None,None,414.8113694000058,415.314004200045,414.8113694000058,415.83007730008103,415.314004200045,415.8140449000057,415.8140449000057,416.9311555000022,0.0,-505094.83443,413.8127621100983,regn_new_final,90,1,0,30,1,2021_Feb_25_1216,testDotsStepRampPilot,2020.2.5,None,
97,0,97,0,None,None,None,None,417.94862930011004,418.449657500023,417.94862930011004,418.9676342001185,418.449657500023,418.94999480014667,418.94999480014667,420.0690288001206,0.0,-505091.698434,416.94784031000455,regn_new_final,90,1,0,30,1,2021_Feb_25_1216,testDotsStepRampPilot,2020.2.5,None,
98,0,98,0,None,None,None,None,421.0862062999513,421.5856493001338,421.0862062999513,422.10258770012297,421.5856493001338,422.0873919001315,422.0873919001315,423.20402810000814,0.0,-505088.559439,420.0857136101229,regn_new_final,90,1,0,30,1,2021_Feb_25_1216,testDotsStepRampPilot,2020.2.5,None,
99,0,99,0,None,None,None,None,424.2213139999658,424.72449699998833,424.2213139999658,425.2576956001576,424.72449699998833,425.23867750004865,425.23867750004865,426.357343000127,1.0,-505085.425547,423.2207129100105,regn_new_final,90,1,0,30,1,2021_Feb_25_1216,testDotsStepRampPilot,2020.2.5,None,
