trials.thisRepN,trials.thisTrialN,trials.thisN,trials.thisIndex,fixation1.started,fixation1.stopped,dots_stimulus.started,dots_stimulus.stopped,fixation2.started,fixation2.stopped,smooth_pursuit.started,smooth_pursuit.stopped,response.keys,response.rt,response.started,response.stopped,coh,dir,correct,pupil_timestamp,psychopy_timestamp,participant,session,date,expName,psychopyVersion,frameRate
0,0,0,0,43.30985683,44.32534072,44.29005331,44.59313972,44.59313972,45.60689599,45.59063442,46.59063777,left,0.797086531,46.59063777,None,0.24,180,1,1307.885494,43.30701677,justin1,1,2020_Dec_11_1040,testDots,2020.2.5,59.99342628
1,0,1,0,47.4246455,48.42419459,48.39087726,48.6906819,48.70723528,49.70793292,49.70793292,50.70811348,right,0.61558619,50.70811348,None,0.48,0,1,1312.001799,47.42463875,justin1,1,2020_Dec_11_1040,testDots,2020.2.5,59.99342628
2,0,2,0,51.3596703,52.37477085,52.34161933,52.64154873,52.64154873,53.64359449,53.64359449,54.64409651,left,1.255612481,54.64409651,None,0.06,0,0,1315.929665,51.34093738,justin1,1,2020_Dec_11_1040,testDots,2020.2.5,59.99342628
3,0,3,0,55.94231206,56.94409698,56.92997331,57.24225835,57.22814659,58.24255648,58.22640379,59.22593739,right,1.145771735,59.22593739,None,0.03,180,0,1320.513323,55.92546805,justin1,1,2020_Dec_11_1040,testDots,2020.2.5,59.99342628
4,0,4,0,60.41039312,61.4120717,61.3929948,61.69372939,61.69372939,62.69355983,62.69355983,63.69470432,left,1.020960905,63.69470432,None,0.12,0,0,1324.986326,60.39553218,justin1,1,2020_Dec_11_1040,testDots,2020.2.5,59.99342628
5,0,5,0,64.76412454,65.77677262,65.74353578,66.04362729,66.04362729,67.04627223,67.04627223,68.04747255,left,0.436210363,68.04747255,None,0.12,180,1,1329.33268,64.74336953,justin1,1,2020_Dec_11_1040,testDots,2020.2.5,59.99342628
6,0,6,0,68.52821978,69.52820878,69.51096275,69.81099745,69.81099745,70.81126261,70.81126261,71.81134512,right,0.704347948,71.81134512,None,0.24,0,1,1333.10025,68.51188228,justin1,1,2020_Dec_11_1040,testDots,2020.2.5,59.99342628
7,0,7,0,72.56152109,73.56161114,73.54720261,73.86177309,73.84609086,74.84574611,74.84574611,75.84521884,right,0.518488979,75.84521884,None,0.06,0,1,1337.13409,72.5448981,justin1,1,2020_Dec_11_1040,testDots,2020.2.5,59.99342628
8,0,8,0,76.39545594,77.39755548,77.37890062,77.67882393,77.67882393,78.67907108,78.67907108,79.68017153,left,0.491519117,79.68017153,None,0.03,180,1,1340.970573,76.38049885,justin1,1,2020_Dec_11_1040,testDots,2020.2.5,59.99342628
9,0,9,0,80.21435389,81.22964827,81.19643818,81.49611826,81.49611826,82.49657827,82.49657827,83.49891554,right,0.52881788,83.49891554,None,0.48,0,1,1344.789538,80.200354,justin1,1,2020_Dec_11_1040,testDots,2020.2.5,59.99342628
10,0,10,0,84.06823244,85.08012434,85.04688315,85.34742702,85.34742702,86.34791312,86.34791312,87.34770895,right,2.839987726,87.34770895,None,0.06,0,1,1348.637663,84.05022852,justin1,1,2020_Dec_11_1040,testDots,2020.2.5,59.99342628
11,0,11,0,90.2348251,91.24769038,91.21449397,91.51436593,91.51436593,92.51647576,92.51647576,93.51711847,right,0.390577332,93.51711847,None,0.12,0,1,1354.801872,90.21404641,justin1,1,2020_Dec_11_1040,testDots,2020.2.5,59.99342628
12,0,12,0,93.95192717,94.96495743,94.93183214,95.23183749,95.23183749,96.23552486,96.23552486,97.23600547,left,0.327703533,97.23600547,None,0.48,180,1,1358.519804,93.93175147,justin1,1,2020_Dec_11_1040,testDots,2020.2.5,59.99342628
13,0,13,0,97.60247594,98.6153484,98.5822622,98.88237206,98.88237206,99.88218178,99.88218178,100.8833289,right,0.544354691,100.8833289,None,0.03,180,0,1362.171159,97.5819512,justin1,1,2020_Dec_11_1040,testDots,2020.2.5,59.99342628
14,0,14,0,101.4662835,102.4662183,102.4496349,102.7497944,102.7497944,103.749818,103.749818,104.7499871,right,0.909698266,104.7499871,None,0.24,0,1,1366.039263,101.4497735,justin1,1,2020_Dec_11_1040,testDots,2020.2.5,59.99342628
15,0,15,0,105.7017405,106.7005568,106.6883104,107.0004827,106.9841431,107.9839213,107.9839213,108.9839452,right,0.419787917,108.9839452,None,0.03,0,1,1370.272457,105.6840965,justin1,1,2020_Dec_11_1040,testDots,2020.2.5,59.99342628
16,0,16,0,109.4520603,110.4510713,110.4346773,110.7346287,110.7346287,111.7345584,111.7345584,112.7345885,left,0.525125701,112.7345885,None,0.48,180,1,1374.022184,109.434063,justin1,1,2020_Dec_11_1040,testDots,2020.2.5,59.99342628
17,0,17,0,113.3020447,114.3016852,114.2846802,114.584935,114.584935,115.5850954,115.5850954,116.5852505,right,1.098459589,116.5852505,None,0.24,0,1,1377.872838,113.2849107,justin1,1,2020_Dec_11_1040,testDots,2020.2.5,59.99342628
18,0,18,0,117.7188248,118.7191348,118.7032318,119.0024338,119.0024338,120.0024727,120.0024727,121.0026912,right,2.449012971,121.0026912,None,0.12,0,1,1382.292249,117.7021064,justin1,1,2020_Dec_11_1040,testDots,2020.2.5,59.99342628
19,0,19,0,123.4870504,124.4867919,124.4698467,124.7700003,124.7700003,125.770087,125.770087,126.7702601,right,1.817423346,126.7702601,None,0.06,180,0,1388.058578,123.4699433,justin1,1,2020_Dec_11_1040,testDots,2020.2.5,59.99342628
20,0,20,0,128.6375864,129.6413388,129.6205175,129.9214022,129.9214022,130.9232347,130.9232347,131.9248536,right,0.942886302,131.9248536,None,0.12,0,1,1393.20887,128.6212513,justin1,1,2020_Dec_11_1040,testDots,2020.2.5,59.99342628
21,0,21,0,132.9046379,133.9061704,133.8883791,134.1880831,134.1880831,135.1883622,135.1883622,136.1883141,left,1.119393862,136.1883141,None,0.06,180,1,1397.47575,132.8879586,justin1,1,2020_Dec_11_1040,testDots,2020.2.5,59.99342628
22,0,22,0,137.3556203,138.356389,138.3390773,138.6392581,138.6392581,139.63906,139.63906,140.6391053,left,1.292625708,140.6391053,None,0.48,180,1,1401.928348,137.3385043,justin1,1,2020_Dec_11_1040,testDots,2020.2.5,59.99342628
23,0,23,0,141.9751706,142.9895826,142.9728134,143.272725,143.2560609,144.2574812,144.2574812,145.2588104,right,0.560967796,145.2588104,None,0.03,0,1,1406.551344,141.9594268,justin1,1,2020_Dec_11_1040,testDots,2020.2.5,59.99342628
24,0,24,0,145.8612861,146.8735303,146.8405893,147.1400158,147.1400158,148.1439731,148.1439731,149.1405243,right,1.519183757,149.1405243,None,0.24,0,1,1410.430803,145.843645,justin1,1,2020_Dec_11_1040,testDots,2020.2.5,59.99342628
25,0,25,0,150.7085826,151.7250718,151.6908779,151.9940281,151.9940281,153.0076638,152.9913802,153.9915168,right,0.95619332,153.9915168,None,0.48,0,1,1415.278593,150.6908111,justin1,1,2020_Dec_11_1040,testDots,2020.2.5,59.99342628
26,0,26,0,154.9922317,155.9915993,155.9750004,156.2750007,156.2750007,157.2754543,157.2754543,158.2755543,left,0.648147512,158.2755543,None,0.24,0,0,1419.563031,154.9754593,justin1,1,2020_Dec_11_1040,testDots,2020.2.5,59.99342628
27,0,27,0,158.9594541,159.9589782,159.9422918,160.2422341,160.2422341,161.2430891,161.2430891,162.2429821,right,1.088714548,162.2429821,None,0.06,0,1,1423.530723,158.9423978,justin1,1,2020_Dec_11_1040,testDots,2020.2.5,59.99342628
28,0,28,0,163.3762606,164.3765744,164.3595368,164.6610291,164.6610291,165.6767991,165.6628806,166.6600759,left,3.295653758,166.6600759,None,0.03,180,1,1427.94802,163.3596146,justin1,1,2020_Dec_11_1040,testDots,2020.2.5,59.99342628
29,0,29,0,169.9938977,170.9938836,170.9775753,171.2776217,171.2776217,172.2775029,172.2775029,173.2783906,right,0.33331305,173.2783906,None,0.12,180,0,1434.566494,169.977323,justin1,1,2020_Dec_11_1040,testDots,2020.2.5,59.99342628
30,0,30,0,173.6445519,174.6462856,174.6281552,174.9289674,174.9289674,175.9302485,175.9302485,176.9288369,left,0.754852464,176.9288369,None,0.48,180,1,1438.218575,173.6286947,justin1,1,2020_Dec_11_1040,testDots,2020.2.5,59.99342628
31,0,31,0,177.7302136,178.7452348,178.7119181,179.0119982,179.0119982,180.0121482,180.0121482,181.014025,right,1.429670446,181.014025,None,0.12,0,1,1442.305489,177.7165133,justin1,1,2020_Dec_11_1040,testDots,2020.2.5,59.99342628
32,0,32,0,182.4796063,183.47962,183.46274,183.7636493,183.7636493,184.7626735,184.7626735,185.7632842,right,0.544396321,185.7632842,None,0.24,0,1,1447.051904,182.4630666,justin1,1,2020_Dec_11_1040,testDots,2020.2.5,59.99342628
33,0,33,0,186.3467063,187.3476842,187.3301858,187.6302546,187.6302546,188.6303276,188.6303276,189.6312163,left,0.764485437,189.6312163,None,0.03,180,1,1450.920166,186.3303227,justin1,1,2020_Dec_11_1040,testDots,2020.2.5,59.99342628
34,0,34,0,190.4309352,191.433104,191.4140985,191.7142369,191.7142369,192.7144509,192.7144509,193.7143095,right,0.529470558,193.7143095,None,0.06,180,0,1455.002929,190.4146539,justin1,1,2020_Dec_11_1040,testDots,2020.2.5,59.99342628
35,0,35,0,194.2848748,195.2981441,195.2645818,195.5646696,195.5646696,196.5649397,196.5649397,197.5647223,right,0.590982939,197.5647223,None,0.12,0,1,1458.853933,194.2663271,justin1,1,2020_Dec_11_1040,testDots,2020.2.5,59.99342628
36,0,36,0,198.2020276,199.2165549,199.1822012,199.4821141,199.4821141,200.4830424,200.4830424,201.4826145,right,0.729115913,201.4826145,None,0.03,0,1,1462.77373,198.1862772,justin1,1,2020_Dec_11_1040,testDots,2020.2.5,59.99342628
37,0,37,0,202.2493129,203.249443,203.2334441,203.5356873,203.5356873,204.5497233,204.5329883,205.5331615,right,0.830548354,205.5331615,None,0.24,0,1,1466.820645,202.2327547,justin1,1,2020_Dec_11_1040,testDots,2020.2.5,59.99342628
38,0,38,0,206.3997956,207.4000685,207.3851456,207.7000932,207.6834738,208.6836662,208.6836662,209.6841972,right,0.823560079,209.6841972,None,0.06,0,1,1470.971893,206.3832804,justin1,1,2020_Dec_11_1040,testDots,2020.2.5,59.99342628
39,0,39,0,210.5509326,211.5506163,211.5341647,211.8340811,211.8340811,212.8343371,212.8343371,213.8346672,right,1.009035079,213.8346672,None,0.48,0,1,1475.123496,210.5342196,justin1,1,2020_Dec_11_1040,testDots,2020.2.5,59.99342628
40,0,40,0,214.8848317,215.8848155,215.8681617,216.1681783,216.1681783,217.1714889,217.1714889,218.1685966,right,0.491096801,218.1685966,None,0.48,0,1,1479.456289,214.8681171,justin1,1,2020_Dec_11_1040,testDots,2020.2.5,59.99342628
41,0,41,0,218.702124,219.7021015,219.6878354,220.0021782,219.9866404,221.0022905,220.9888109,221.9858748,left,0.577830202,221.9858748,None,0.24,180,1,1483.273305,218.6856429,justin1,1,2020_Dec_11_1040,testDots,2020.2.5,59.99342628
42,0,42,0,222.6069952,223.6195524,223.5862477,223.8862873,223.8862873,224.8861626,224.8861626,225.8862329,left,1.72547392,225.8862329,None,0.12,180,1,1487.17748,222.5865712,justin1,1,2020_Dec_11_1040,testDots,2020.2.5,59.99342628
43,0,43,0,227.653298,228.6533739,228.6367086,228.9373123,228.9373123,229.9411129,229.9411129,230.9371459,right,1.242574312,230.9371459,None,0.06,0,1,1492.225678,227.6368478,justin1,1,2020_Dec_11_1040,testDots,2020.2.5,59.99342628
44,0,44,0,232.2215126,233.2231978,233.2043446,233.5042214,233.5042214,234.5049648,234.5049648,235.5049728,right,0.674727622,235.5049728,None,0.03,0,1,1496.794597,232.2057417,justin1,1,2020_Dec_11_1040,testDots,2020.2.5,59.99342628
45,0,45,0,236.2219965,237.2224014,237.2108312,237.5214281,237.5048466,238.5050491,238.5050491,239.5053693,right,1.178355963,239.5053693,None,0.24,0,1,1500.793218,236.2051429,justin1,1,2020_Dec_11_1040,testDots,2020.2.5,59.99342628
46,0,46,0,240.7223187,241.7224247,241.7057455,242.0056843,242.0056843,243.0095045,243.0095045,244.0060904,right,1.933641535,244.0060904,None,0.06,0,1,1505.294634,240.7060575,justin1,1,2020_Dec_11_1040,testDots,2020.2.5,59.99342628
47,0,47,0,245.9741626,246.9732581,246.9611452,247.2731721,247.2565322,248.2566372,248.2566372,249.2570098,left,0.522704705,249.2570098,None,0.03,0,0,1510.545539,245.9565931,justin1,1,2020_Dec_11_1040,testDots,2020.2.5,59.99342628
48,0,48,0,249.8247363,250.8238809,250.8072053,251.1072326,251.1072326,252.1074545,252.1074545,253.1074013,left,0.848289039,253.1074013,None,0.48,180,1,1514.395049,249.8072835,justin1,1,2020_Dec_11_1040,testDots,2020.2.5,59.99342628
49,0,49,0,253.9911183,254.9912961,254.974298,255.2758813,255.2758813,256.2920339,256.276448,257.2746201,left,0.489074249,257.2746201,None,0.12,0,0,1518.56394,253.9743579,justin1,1,2020_Dec_11_1040,testDots,2020.2.5,59.99342628
50,0,50,0,257.8083728,258.8083717,258.7917848,259.0920929,259.0920929,260.09544,260.09544,261.0927371,right,0.398957502,261.0927371,None,0.12,180,0,1522.379542,257.791678,justin1,1,2020_Dec_11_1040,testDots,2020.2.5,59.99342628
51,0,51,0,261.5255191,262.5257158,262.5108892,262.8267912,262.8097211,263.8099773,263.8099773,264.8100544,right,1.177647577,264.8100544,None,0.24,0,1,1526.098936,261.5107973,justin1,1,2020_Dec_11_1040,testDots,2020.2.5,59.99342628
52,0,52,0,266.031265,267.0429642,267.0098391,267.309993,267.309993,268.3117517,268.3117517,269.3134125,right,0.058351702,269.3134125,None,0.03,0,1,1530.606224,266.0137521,justin1,1,2020_Dec_11_1040,testDots,2020.2.5,59.99342628
53,0,53,0,269.4129961,270.4268333,270.3935225,270.693849,270.693849,271.6952739,271.6952739,272.6935988,right,0.08612822,272.6935988,None,0.48,0,1,1533.981249,269.3931814,justin1,1,2020_Dec_11_1040,testDots,2020.2.5,59.99342628
54,0,54,0,272.8273567,273.8275631,273.8111583,274.1108338,274.1108338,275.113113,275.113113,276.1112916,left,0.876419235,276.1112916,None,0.06,180,1,1537.40478,272.8145147,justin1,1,2020_Dec_11_1040,testDots,2020.2.5,59.99342628
55,0,55,0,277.0281261,278.0286114,278.0116148,278.3115073,278.3115073,279.3117252,279.3117252,280.3120076,left,0.315665878,280.3120076,None,0.12,180,1,1541.60154,277.0115624,justin1,1,2020_Dec_11_1040,testDots,2020.2.5,59.99342628
56,0,56,0,280.6622459,281.662594,281.6452466,281.9475505,281.9475505,282.9459617,282.9459617,283.9458838,right,0.817810815,283.9458838,None,0.03,180,0,1545.234701,280.6452245,justin1,1,2020_Dec_11_1040,testDots,2020.2.5,59.99342628
57,,,,284.8130771,285.8127974,285.7998147,286.112679,286.0966093,287.0962332,287.0962332,288.0965631,None,,288.0965631,None,0.24,0,0,,,,,,,,
58,0,0,0,10.3317888,11.3496204,11.2958256,11.5957018,11.5957018,12.596013,12.6126548,13.6126551,right,0.21684638,13.6126551,None,0.24,0,1,1776.36023,10.3280905,justin22,1,2020_Dec_11_1048,testDots,2020.2.5,59.9367793
59,0,1,0,13.8629983,14.8631219,14.8463986,15.1461509,15.1461509,16.1462847,16.1462847,17.14641,left,0.63506041,17.14641,None,0.12,180,1,1779.89158,13.8471009,justin22,1,2020_Dec_11_1048,testDots,2020.2.5,59.9367793
60,0,2,0,17.8302235,18.8301313,18.8132593,19.113516,19.113516,20.1137077,20.1137077,21.1144154,left,0.60308564,21.1144154,None,0.48,180,1,1783.85541,17.8132839,justin22,1,2020_Dec_11_1048,testDots,2020.2.5,59.9367793
61,0,3,0,21.7665002,22.7812676,22.7473631,23.0474352,23.0474352,24.0492166,24.0492166,25.0503666,left,0.28312309,25.0503666,None,0.06,0,0,1787.78938,21.7474753,justin22,1,2020_Dec_11_1048,testDots,2020.2.5,59.9367793
62,0,4,0,25.3814052,26.3814499,26.3646242,26.6648523,26.6648523,27.6647337,27.6647337,28.6651022,right,0.50839316,28.6651022,None,0.03,0,1,1791.40728,25.364605,justin22,1,2020_Dec_11_1048,testDots,2020.2.5,59.9367793
63,0,5,0,29.215352,30.2171313,30.1985302,30.4987839,30.4987839,31.4994332,31.4994332,32.498826,left,0.88265657,32.498826,None,0.12,0,0,1795.24242,29.199648,justin22,1,2020_Dec_11_1048,testDots,2020.2.5,59.9367793
64,0,6,0,33.4159671,34.4161451,34.4004936,34.7162396,34.6991375,35.699602,35.699602,36.6999735,right,0.31354884,36.6999735,None,0.48,0,1,1799.4425,33.3994987,justin22,1,2020_Dec_11_1048,testDots,2020.2.5,59.9367793
65,0,7,0,37.0498911,38.049687,38.0333477,38.3332579,38.3332579,39.3333942,39.3333942,40.334232,left,0.29526137,40.334232,None,0.03,180,1,1803.07865,37.033822,justin22,1,2020_Dec_11_1048,testDots,2020.2.5,59.9367793
66,0,8,0,40.6693742,41.6844696,41.6504257,41.950535,41.950535,42.9512158,42.9512158,43.9523792,right,0.60511515,43.9523792,None,0.24,0,1,1806.69769,40.6528175,justin22,1,2020_Dec_11_1048,testDots,2020.2.5,59.9367793
67,0,9,0,44.6018288,45.6012525,45.5846651,45.8846052,45.8846052,46.8851366,46.8851366,47.8850307,left,0.0644719,47.8850307,None,0.06,0,0,1810.62595,44.5843583,justin22,1,2020_Dec_11_1048,testDots,2020.2.5,59.9367793
68,0,10,0,47.98534,48.9854862,48.9689117,49.268363,49.268363,50.2692507,50.2692507,51.2687443,right,0.20874118,51.2687443,None,0.12,0,1,1814.0115,47.9683833,justin22,1,2020_Dec_11_1048,testDots,2020.2.5,59.9367793
69,0,11,0,51.521462,52.5355529,52.5023653,52.8025382,52.8025382,53.80395,53.80395,54.8025178,left,0.38699228,54.8025178,None,0.06,180,1,1817.54526,51.5024353,justin22,1,2020_Dec_11_1048,testDots,2020.2.5,59.9367793
70,0,12,0,55.2361652,56.2363505,56.2198422,56.5199888,56.5199888,57.5217874,57.5217874,58.5199124,left,0.30957642,58.5199124,None,0.48,180,1,1821.26211,55.2194868,justin22,1,2020_Dec_11_1048,testDots,2020.2.5,59.9367793
71,0,13,0,58.86997,59.871497,59.8538761,60.1536474,60.1536474,61.153702,61.153702,62.1536844,left,0.29182056,62.1536844,None,0.03,0,0,1824.89627,58.8535001,justin22,1,2020_Dec_11_1048,testDots,2020.2.5,59.9367793
72,0,14,0,62.4875508,63.4898577,63.471021,63.7708135,63.7708135,64.7709271,64.7709271,65.7712214,right,0.25828701,65.7712214,None,0.24,0,1,1828.51628,62.4736034,justin22,1,2020_Dec_11_1048,testDots,2020.2.5,59.9367793
73,0,15,0,66.0714248,67.0711673,67.055519,67.3549281,67.3549281,68.3549906,68.3549906,69.3549112,left,0.32261672,69.3549112,None,0.06,180,1,1832.09779,66.0545388,justin22,1,2020_Dec_11_1048,testDots,2020.2.5,59.9367793
74,0,16,0,69.7218914,70.7220579,70.7051941,71.0053148,71.0053148,72.0054951,72.0054951,73.0056921,left,0.20779676,73.0056921,None,0.12,0,0,1835.75103,69.7068569,justin22,1,2020_Dec_11_1048,testDots,2020.2.5,59.9367793
75,0,17,0,73.2564691,74.2558371,74.2428398,74.5559996,74.5392789,75.5399675,75.5399675,76.5395332,right,0.26596893,76.5395332,None,0.48,0,1,1839.28253,73.2400812,justin22,1,2020_Dec_11_1048,testDots,2020.2.5,59.9367793
76,0,18,0,76.8400328,77.8395413,77.8229798,78.1230625,78.1230625,79.1232438,79.1232438,80.1234716,left,0.17001677,80.1234716,None,0.03,0,0,1842.86646,76.8227741,justin22,1,2020_Dec_11_1048,testDots,2020.2.5,59.9367793
77,0,19,0,80.3415159,81.3570045,81.3236785,81.6238059,81.6238059,82.625716,82.625716,83.6275645,left,0.24993153,83.6275645,None,0.24,180,1,1846.36598,80.323334,justin22,1,2020_Dec_11_1048,testDots,2020.2.5,59.9367793
78,0,20,0,83.9240745,84.9241036,84.9075978,85.2077116,85.2077116,86.2075481,86.2075481,87.2078624,left,0.30970893,87.2078624,None,0.48,180,1,1849.94965,83.9075365,justin22,1,2020_Dec_11_1048,testDots,2020.2.5,59.9367793
79,0,21,0,87.5589332,88.5580546,88.5417041,88.8415252,88.8415252,89.841762,89.841762,90.8418746,right,0.18767203,90.8418746,None,0.06,0,1,1853.58382,87.5414075,justin22,1,2020_Dec_11_1048,testDots,2020.2.5,59.9367793
80,0,22,0,91.0751875,92.075259,92.0587868,92.3588458,92.3588458,93.3589044,93.3589044,94.3590044,right,0.11046498,94.3590044,None,0.24,180,0,1857.1008,91.0589535,justin22,1,2020_Dec_11_1048,testDots,2020.2.5,59.9367793
81,0,23,0,94.5093955,95.5094289,95.4928576,95.792611,95.792611,96.7926773,96.7926773,97.7933347,right,0.06016625,97.7933347,None,0.12,0,1,1860.53508,94.4928853,justin22,1,2020_Dec_11_1048,testDots,2020.2.5,59.9367793
82,0,24,0,97.8934413,98.8934378,98.8763582,99.1784162,99.1784162,100.193407,100.176595,101.176872,left,0.22068065,101.176872,None,0.03,0,0,1863.91896,97.8775215,justin22,1,2020_Dec_11_1048,testDots,2020.2.5,59.9367793
83,0,25,0,101.443714,102.444032,102.432156,102.743828,102.728837,103.744034,103.727928,104.727405,left,0.16609638,104.727405,None,0.12,180,1,1867.4696,101.42685,justin22,1,2020_Dec_11_1048,testDots,2020.2.5,59.9367793
84,0,26,0,104.927828,105.927633,105.911825,106.214504,106.214504,107.227965,107.211927,108.211427,left,0.04212979,108.211427,None,0.24,0,0,1870.95415,104.910867,justin22,1,2020_Dec_11_1048,testDots,2020.2.5,59.9367793
85,0,27,0,108.295099,109.295461,109.278147,109.578321,109.578321,110.578413,110.578413,111.578618,right,0.32284775,111.578618,None,0.03,0,1,1874.32196,108.278287,justin22,1,2020_Dec_11_1048,testDots,2020.2.5,59.9367793
86,0,28,0,111.945486,112.945065,112.928822,113.229131,113.229131,114.229271,114.229271,115.231201,right,0.16633717,115.231201,None,0.48,0,1,1877.97483,111.929724,justin22,1,2020_Dec_11_1048,testDots,2020.2.5,59.9367793
87,0,29,0,115.447286,116.462686,116.429329,116.72965,116.72965,117.729662,117.729662,118.730159,left,0.21132752,118.730159,None,0.06,0,0,1881.47127,115.429447,justin22,1,2020_Dec_11_1048,testDots,2020.2.5,59.9367793
88,0,30,0,118.981833,119.996622,119.963465,120.264414,120.264414,121.264438,121.264438,122.263569,left,0.22989639,122.263569,None,0.48,180,1,1885.00603,118.964379,justin22,1,2020_Dec_11_1048,testDots,2020.2.5,59.9367793
89,0,31,0,122.533554,123.547258,123.514087,123.813884,123.813884,124.814502,124.814502,125.814317,right,0.07921158,125.814317,None,0.06,0,1,1888.55916,122.517126,justin22,1,2020_Dec_11_1048,testDots,2020.2.5,59.9367793
90,0,32,0,125.93094,126.932431,126.915356,127.2326,127.215535,128.214801,128.214801,129.215754,left,0.1337427,129.215754,None,0.03,180,1,1891.95661,125.914435,justin22,1,2020_Dec_11_1048,testDots,2020.2.5,59.9367793
91,0,33,0,129.401186,130.415076,130.381759,130.68166,130.68166,131.683262,131.683262,132.686341,left,0.19115055,132.686341,None,0.12,180,1,1895.42272,129.381116,justin22,1,2020_Dec_11_1048,testDots,2020.2.5,59.9367793
92,0,34,0,132.915712,133.915733,133.898866,134.198974,134.198974,135.199484,135.199484,136.198963,left,1.92655088,136.198963,None,0.24,180,1,1898.94452,132.902319,justin22,1,2020_Dec_11_1048,testDots,2020.2.5,59.9367793
93,0,35,0,138.166447,139.166289,139.150195,139.449714,139.449714,140.449996,140.449996,141.450106,left,0.17140694,141.450106,None,0.06,180,1,1904.19181,138.14989,justin22,1,2020_Dec_11_1048,testDots,2020.2.5,59.9367793
94,0,36,0,141.667685,142.666791,142.650113,142.950193,142.950193,143.950362,143.950362,144.953642,left,0.49991899,144.953642,None,0.48,180,1,1907.69796,141.653969,justin22,1,2020_Dec_11_1048,testDots,2020.2.5,59.9367793
95,0,37,0,145.501209,146.501937,146.484317,146.784083,146.784083,147.784631,147.784631,148.784579,left,0.19694434,148.784579,None,0.03,180,1,1911.52746,145.485052,justin22,1,2020_Dec_11_1048,testDots,2020.2.5,59.9367793
96,0,38,0,149.018576,150.017965,150.001455,150.301901,150.301901,151.301815,151.301815,152.302788,left,0.71075429,152.302788,None,0.12,0,0,1915.04399,149.001314,justin22,1,2020_Dec_11_1048,testDots,2020.2.5,59.9367793
97,0,39,0,153.052509,154.052346,154.035907,154.336942,154.336942,155.352697,155.340482,156.336076,left,0.28544874,156.336076,None,0.24,180,1,1919.0782,153.035643,justin22,1,2020_Dec_11_1048,testDots,2020.2.5,59.9367793
98,0,40,0,156.657404,157.669594,157.636251,157.936097,157.936097,158.936246,158.936246,159.936449,right,0.10903847,159.936449,None,0.48,0,1,1922.6849,156.639332,justin22,1,2020_Dec_11_1048,testDots,2020.2.5,59.9367793
99,0,41,0,160.08639,161.086688,161.073217,161.386979,161.371593,162.387523,162.370245,163.370234,left,0.1472626,163.370234,None,0.24,180,1,1926.1122,160.070098,justin22,1,2020_Dec_11_1048,testDots,2020.2.5,59.9367793
100,0,42,0,163.553966,164.554693,164.537242,164.837361,164.837361,165.837415,165.837415,166.837408,left,0.88010464,166.837408,None,0.03,180,1,1929.58247,163.537423,justin22,1,2020_Dec_11_1048,testDots,2020.2.5,59.9367793
101,0,43,0,167.756127,168.771155,168.737722,169.03807,169.03807,170.038213,170.038213,171.038327,left,0.25513344,171.038327,None,0.12,180,1,1933.78183,167.738539,justin22,1,2020_Dec_11_1048,testDots,2020.2.5,59.9367793
102,0,44,0,171.339461,172.338485,172.321958,172.621889,172.621889,173.622256,173.622256,174.622258,right,0.12722876,174.622258,None,0.06,180,0,1937.36404,171.321702,justin22,1,2020_Dec_11_1048,testDots,2020.2.5,59.9367793
103,0,45,0,174.789519,175.788916,175.772499,176.07246,176.07246,177.072603,177.072603,178.072672,right,0.17280877,178.072672,None,0.06,180,0,1940.81491,174.772656,justin22,1,2020_Dec_11_1048,testDots,2020.2.5,59.9367793
104,0,46,0,178.289496,179.289379,179.2729,179.572995,179.572995,180.572791,180.572791,181.573238,left,0.36027172,181.573238,None,0.24,180,1,1944.31446,178.272567,justin22,1,2020_Dec_11_1048,testDots,2020.2.5,59.9367793
105,0,47,0,181.977303,182.99034,182.956959,183.258108,183.258108,184.260353,184.260353,185.257091,left,0.30841997,185.257091,None,0.48,180,1,1947.99901,181.956834,justin22,1,2020_Dec_11_1048,testDots,2020.2.5,59.9367793
106,0,48,0,185.607356,186.608473,186.590857,186.890979,186.890979,187.891086,187.891086,188.891321,right,0.26617452,188.891321,None,0.12,0,1,1951.63312,185.590584,justin22,1,2020_Dec_11_1048,testDots,2020.2.5,59.9367793
107,0,49,0,189.191506,190.191599,190.174909,190.474892,190.474892,191.475334,191.475334,192.476308,left,0.16917548,192.476308,None,0.03,0,0,1955.21904,189.174358,justin22,1,2020_Dec_11_1048,testDots,2020.2.5,59.9367793
108,0,50,0,192.691878,193.692457,193.67622,193.975136,193.975136,194.975544,194.975544,195.975878,left,0.00559045,195.975878,None,0.24,180,1,1958.7171,192.675071,justin22,1,2020_Dec_11_1048,testDots,2020.2.5,59.9367793
109,0,51,0,196.025796,197.029683,197.009288,197.309216,197.309216,198.309396,198.309396,199.310044,right,0.19948734,199.310044,None,0.48,0,1,1962.05459,196.009134,justin22,1,2020_Dec_11_1048,testDots,2020.2.5,59.9367793
110,0,52,0,199.543045,200.545394,200.526417,200.8263,200.8263,201.826577,201.826577,202.826919,left,0.17057329,202.826919,None,0.06,180,1,1965.57153,199.52833,justin22,1,2020_Dec_11_1048,testDots,2020.2.5,59.9367793
111,0,53,0,203.044701,204.043791,204.03071,204.343686,204.326843,205.327284,205.327284,206.328736,left,0.43671432,206.328736,None,0.03,0,0,1969.06935,203.026701,justin22,1,2020_Dec_11_1048,testDots,2020.2.5,59.9367793
112,0,54,0,206.814787,207.827571,207.811468,208.111491,208.111491,209.11123,209.11123,210.111588,right,1.85392411,210.111588,None,0.12,180,0,1972.8442,206.797646,justin22,1,2020_Dec_11_1048,testDots,2020.2.5,59.9367793
113,0,55,0,212.011874,213.011616,212.995748,213.295006,213.295006,214.296723,214.296723,215.295775,right,0.08575003,215.295775,None,0.48,0,1,1978.03848,211.995072,justin22,1,2020_Dec_11_1048,testDots,2020.2.5,59.9367793
114,0,56,0,215.429043,216.43249,216.412477,216.713905,216.713905,217.729414,217.712418,218.712727,left,0.50078351,218.712727,None,0.24,180,1,1981.45589,215.412659,justin22,1,2020_Dec_11_1048,testDots,2020.2.5,59.9367793
115,0,57,0,219.246663,220.24617,220.229419,220.52978,220.52978,221.530768,221.530768,222.529859,right,0.3236551,222.529859,None,0.12,0,1,1985.27454,219.231214,justin22,1,2020_Dec_11_1048,testDots,2020.2.5,59.9367793
116,0,58,0,222.897609,223.896782,223.88046,224.180198,224.180198,225.180447,225.180447,226.18328,left,0.14228813,226.18328,None,0.03,180,1,1988.92488,222.882844,justin22,1,2020_Dec_11_1048,testDots,2020.2.5,59.9367793
117,0,59,0,226.365125,227.380819,227.347406,227.647599,227.647599,228.647593,228.647593,229.647912,left,0.90155292,229.647912,None,0.06,0,0,1992.39032,226.347917,justin22,1,2020_Dec_11_1048,testDots,2020.2.5,59.9367793
118,0,60,0,230.600929,231.614986,231.581289,231.881344,231.881344,232.883934,232.883934,233.881647,left,0.1959025,233.881647,None,0.24,180,1,1996.62322,230.581446,justin22,1,2020_Dec_11_1048,testDots,2020.2.5,59.9367793
119,0,61,0,234.115204,235.115275,235.099134,235.39855,235.39855,236.404487,236.404487,237.39902,left,0.24649909,237.39902,None,0.03,180,1,2000.14128,234.098748,justin22,1,2020_Dec_11_1048,testDots,2020.2.5,59.9367793
120,0,62,0,237.682742,238.683041,238.666182,238.966159,238.966159,239.966238,239.966238,240.966202,right,0.19130461,240.966202,None,0.06,180,0,2003.70813,237.666228,justin22,1,2020_Dec_11_1048,testDots,2020.2.5,59.9367793
121,0,63,0,241.19992,242.199618,242.183202,242.483402,242.483402,243.48438,243.48438,244.484845,right,0.32067173,244.484845,None,0.48,0,1,2007.22647,241.183271,justin22,1,2020_Dec_11_1048,testDots,2020.2.5,59.9367793
122,0,64,0,244.850879,245.851853,245.833843,246.134278,246.134278,247.133841,247.133841,248.13405,left,0.17547056,248.13405,None,0.12,180,1,2010.87729,244.834674,justin22,1,2020_Dec_11_1048,testDots,2020.2.5,59.9367793
123,0,65,0,248.350874,249.351116,249.33648,249.651267,249.634072,250.634646,250.634646,251.634775,left,0.0107138,251.634775,None,0.03,0,0,2014.37627,248.334155,justin22,1,2020_Dec_11_1048,testDots,2020.2.5,59.9367793
124,0,66,0,251.685883,252.690126,252.668464,252.968418,252.968418,253.968407,253.968407,254.968759,left,0.02877434,254.968759,None,0.12,180,1,2017.71461,251.668954,justin22,1,2020_Dec_11_1048,testDots,2020.2.5,59.9367793
125,0,67,0,255.037041,256.052621,256.019033,256.319403,256.319403,257.318879,257.318879,258.319828,left,0.1256792,258.319828,None,0.06,0,0,2021.06591,255.019886,justin22,1,2020_Dec_11_1048,testDots,2020.2.5,59.9367793
126,0,68,0,258.489261,259.503985,259.469381,259.769346,259.769346,260.770424,260.770424,261.771626,left,0.26588376,261.771626,None,0.24,180,1,2024.51118,258.469443,justin22,1,2020_Dec_11_1048,testDots,2020.2.5,59.9367793
127,0,69,0,262.088427,263.103924,263.069758,263.370742,263.370742,264.370196,264.370196,265.370416,left,0.05906428,265.370416,None,0.48,180,1,2028.11261,262.070529,justin22,1,2020_Dec_11_1048,testDots,2020.2.5,59.9367793
128,0,70,0,265.471113,266.47156,266.453625,266.753849,266.753849,267.753981,267.753981,268.754122,right,2.5713666,268.754122,None,0.12,180,0,2031.49582,265.454153,justin22,1,2020_Dec_11_1048,testDots,2020.2.5,59.9367793
129,0,71,0,271.371329,272.371528,272.354463,272.654596,272.654596,273.654945,273.654945,274.655168,right,0.00634057,274.655168,None,0.06,0,1,2037.39803,271.354606,justin22,1,2020_Dec_11_1048,testDots,2020.2.5,59.9367793
130,0,72,0,274.705776,275.705317,275.688668,275.988627,275.988627,276.988799,276.988799,277.989485,left,0.19200217,277.989485,None,0.24,180,1,2040.73632,274.689302,justin22,1,2020_Dec_11_1048,testDots,2020.2.5,59.9367793
131,0,73,0,278.225357,279.239476,279.205868,279.505941,279.505941,280.506667,280.506667,281.509869,left,0.21560478,281.509869,None,0.48,180,1,2044.25409,278.211063,justin22,1,2020_Dec_11_1048,testDots,2020.2.5,59.9367793
132,0,74,0,281.775795,282.789829,282.757245,283.056484,283.056484,284.058091,284.058091,285.056829,left,0.22869839,285.056829,None,0.03,0,0,2047.80586,281.761234,justin22,1,2020_Dec_11_1048,testDots,2020.2.5,59.9367793
133,0,75,0,285.325203,286.340421,286.307083,286.607085,286.607085,287.608232,287.608232,288.611793,left,0.12167748,288.611793,None,0.24,180,1,2051.34897,285.306848,justin22,1,2020_Dec_11_1048,testDots,2020.2.5,59.9367793
134,0,76,0,288.776989,289.790754,289.757634,290.057694,290.057694,291.059218,291.059218,292.057809,left,0.06766568,292.057809,None,0.06,0,0,2054.8011,288.758539,justin22,1,2020_Dec_11_1048,testDots,2020.2.5,59.9367793
135,0,77,0,292.1749,293.174882,293.158176,293.458137,293.458137,294.458465,294.458465,295.458578,right,0.05891903,295.458578,None,0.48,0,1,2058.19984,292.158024,justin22,1,2020_Dec_11_1048,testDots,2020.2.5,59.9367793
136,0,78,0,295.558501,296.558498,296.541937,296.842094,296.842094,297.844211,297.844211,298.842249,right,2.35524558,298.842249,None,0.12,0,1,2061.58444,295.541977,justin22,1,2020_Dec_11_1048,testDots,2020.2.5,59.9367793
137,0,79,0,301.243052,302.243768,302.226594,302.52642,302.52642,303.52681,303.52681,304.528718,right,0.17277057,304.528718,None,0.03,0,1,2067.26813,301.225818,justin22,1,2020_Dec_11_1048,testDots,2020.2.5,59.9367793
138,0,80,0,304.74419,305.743466,305.726828,306.027099,306.027099,307.027067,307.027067,308.02828,right,0.46523771,308.02828,None,0.48,0,1,2070.76885,304.726722,justin22,1,2020_Dec_11_1048,testDots,2020.2.5,59.9367793
139,0,81,0,308.527235,309.527343,309.510796,309.811506,309.811506,310.810952,310.810952,311.811048,right,0.77044003,311.811048,None,0.03,0,1,2074.55401,308.511469,justin22,1,2020_Dec_11_1048,testDots,2020.2.5,59.9367793
140,0,82,0,312.628086,313.628271,313.612801,313.928432,313.912847,314.928363,314.895159,315.911797,left,1.33373245,315.911797,None,0.12,180,1,2078.65357,312.611902,justin22,1,2020_Dec_11_1048,testDots,2020.2.5,59.9367793
141,0,83,0,317.279285,318.278886,318.265206,318.579328,318.563031,319.562286,319.562286,320.562787,right,0.38669959,320.562787,None,0.24,0,1,2083.30568,317.262246,justin22,1,2020_Dec_11_1048,testDots,2020.2.5,59.9367793
142,0,84,0,320.996189,321.996593,321.979651,322.279795,322.279795,323.279962,323.279962,324.28006,right,0.41346633,324.28006,None,0.06,180,0,2087.02126,320.979275,justin22,1,2020_Dec_11_1048,testDots,2020.2.5,59.9367793
143,0,85,0,324.733218,325.747546,325.713405,326.013575,326.013575,327.016129,327.016129,328.017199,left,0.1962814,328.017199,None,0.12,180,1,2090.75622,324.71379,justin22,1,2020_Dec_11_1048,testDots,2020.2.5,59.9367793
144,0,86,0,328.247374,329.247275,329.230775,329.530578,329.530578,330.533532,330.533532,331.531752,right,1.42573838,331.531752,None,0.03,180,0,2094.27409,328.230382,justin22,1,2020_Dec_11_1048,testDots,2020.2.5,59.9367793
145,0,87,0,332.998001,333.998011,333.98311,334.29812,334.281251,335.281596,335.281596,336.28189,right,0.11565674,336.28189,None,0.06,180,0,2099.02381,332.981693,justin22,1,2020_Dec_11_1048,testDots,2020.2.5,59.9367793
146,0,88,0,336.432977,337.448655,337.415307,337.715593,337.715593,338.715586,338.715586,339.718262,left,0.40723899,339.718262,None,0.48,180,1,2102.46259,336.415269,justin22,1,2020_Dec_11_1048,testDots,2020.2.5,59.9367793
147,0,89,0,340.167257,341.187307,341.149224,341.449194,341.449194,342.449502,342.449502,343.449761,right,0.17979931,343.449761,None,0.24,0,1,2106.19125,340.14944,justin22,1,2020_Dec_11_1048,testDots,2020.2.5,59.9367793
148,0,0,0,17.679267,18.6964327,18.644377,18.9443612,18.9443612,19.9444527,19.9444527,20.9613686,left,1.00076734,20.9613686,None,0.06,0,0,2157.06476,17.6625296,justin3,1,2020_Dec_11_1054,testDots,2020.2.5,59.9436826
149,0,1,0,22.0132613,23.0282064,22.9950755,23.2950961,23.2950961,24.2951361,24.2951361,25.2959304,left,0.38618662,25.2959304,None,0.24,180,1,2161.40677,21.9975131,justin3,1,2020_Dec_11_1054,testDots,2020.2.5,59.9436826
150,0,2,0,25.7291277,26.7289255,26.7121868,27.0121083,27.0121083,28.0131267,28.0131267,29.0138768,left,0.23626204,29.0138768,None,0.03,180,1,2165.11696,25.7123257,justin3,1,2020_Dec_11_1054,testDots,2020.2.5,59.9436826
151,0,3,0,29.2971497,30.3127413,30.2794063,30.5794616,30.5794616,31.5802177,31.5802177,32.5798812,left,0.24637189,32.5798812,None,0.48,0,0,2168.68452,29.2792114,justin3,1,2020_Dec_11_1054,testDots,2020.2.5,59.9436826
152,0,4,0,32.8679599,33.8802938,33.8467846,34.1465654,34.1465654,35.1495596,35.1495596,36.1480683,right,0.03008243,36.1480683,None,0.12,0,1,2172.25394,32.8468245,justin3,1,2020_Dec_11_1054,testDots,2020.2.5,59.9436826
153,0,5,0,36.2138523,37.2140533,37.1979141,37.4991004,37.4991004,38.5143666,38.5003889,39.4974491,right,0.08869942,39.4974491,None,0.03,180,0,2175.60256,36.1971632,justin3,1,2020_Dec_11_1054,testDots,2020.2.5,59.9436826
154,0,6,0,39.6310573,40.6311171,40.6157026,40.9311949,40.9154165,41.9181457,41.9181457,42.9148873,right,0.3512585,42.9148873,None,0.48,180,0,2179.0246,39.6184986,justin3,1,2020_Dec_11_1054,testDots,2020.2.5,59.9436826
155,0,7,0,43.3156783,44.3150869,44.2992427,44.6007512,44.6007512,45.6153405,45.5988943,46.5988696,left,0.05926279,46.5988696,None,0.24,180,1,2182.70382,43.2984265,justin3,1,2020_Dec_11_1054,testDots,2020.2.5,59.9436826
156,0,8,0,46.6988784,47.698931,47.6831344,47.9838864,47.9838864,48.9989532,48.9846085,49.982583,left,0.33157972,49.982583,None,0.12,180,1,2186.08791,46.68227,justin3,1,2020_Dec_11_1054,testDots,2020.2.5,59.9436826
157,0,9,0,50.3495341,51.3504998,51.3346635,51.6499442,51.6371294,52.6498496,52.6328544,53.6333219,right,0.56086078,53.6333219,None,0.06,0,1,2189.73905,50.3328073,justin3,1,2020_Dec_11_1054,testDots,2020.2.5,59.9436826
158,0,10,0,54.2334585,55.2337532,55.2213028,55.5336091,55.517102,56.5170963,56.5170963,57.5176437,left,0.34048991,57.5176437,None,0.12,180,1,2193.62252,54.2172462,justin3,1,2020_Dec_11_1054,testDots,2020.2.5,59.9436826
159,0,11,0,57.9024268,58.9177186,58.8842039,59.1841583,59.1841583,60.1849008,60.1849008,61.1860431,left,0.05609896,61.1860431,None,0.03,180,1,2197.29659,57.888493,justin3,1,2020_Dec_11_1054,testDots,2020.2.5,59.9436826
160,0,12,0,61.2886146,62.3014414,62.2847674,62.5848173,62.5848173,63.5849583,63.5849583,64.5852597,left,0.01695216,64.5852597,None,0.06,0,0,2200.68216,61.2715872,justin3,1,2020_Dec_11_1054,testDots,2020.2.5,59.9436826
161,0,13,0,64.6383301,65.6518451,65.6185744,65.9191347,65.9191347,66.9196318,66.9196318,67.9208077,left,0.20134018,67.9208077,None,0.24,180,1,2204.03024,64.6228166,justin3,1,2020_Dec_11_1054,testDots,2020.2.5,59.9436826
162,0,14,0,68.1702944,69.16914,69.1526983,69.4525214,69.4525214,70.4528028,70.4528028,71.4529694,left,0.50118737,71.4529694,None,0.48,180,1,2207.55968,68.1542691,justin3,1,2020_Dec_11_1054,testDots,2020.2.5,59.9436826
163,0,15,0,72.0041524,73.0203932,72.9863962,73.2863925,73.2863925,74.2914491,74.2914491,75.2894107,right,0.27274029,75.2894107,None,0.12,0,1,2211.39374,71.9871616,justin3,1,2020_Dec_11_1054,testDots,2020.2.5,59.9436826
164,0,16,0,75.6035658,76.6035727,76.5879672,76.887015,76.887015,77.8876508,77.8876508,78.8879447,left,0.34621764,78.8879447,None,0.06,180,1,2214.99329,75.58705,justin3,1,2020_Dec_11_1054,testDots,2020.2.5,59.9436826
165,0,17,0,79.2709325,80.2710663,80.2551456,80.5568311,80.5568311,81.5712933,81.5543456,82.5548642,left,0.03132065,82.5548642,None,0.48,180,1,2218.66022,79.2544145,justin3,1,2020_Dec_11_1054,testDots,2020.2.5,59.9436826
166,0,18,0,82.6214965,83.6221147,83.6070556,83.9224045,83.9080307,84.9217897,84.9051193,85.9055501,left,0.06459212,85.9055501,None,0.24,180,1,2222.01109,82.6052685,justin3,1,2020_Dec_11_1054,testDots,2020.2.5,59.9436826
167,0,19,0,86.0054601,87.005373,86.9900636,87.305664,87.2923793,88.3055623,88.2887451,89.2890589,right,0.12108363,89.2890589,None,0.03,180,0,2225.39544,85.9897018,justin3,1,2020_Dec_11_1054,testDots,2020.2.5,59.9436826
168,0,20,0,89.4558782,90.4561,90.4399574,90.7430664,90.7430664,91.7562398,91.7400957,92.7397144,right,2.06246977,92.7397144,None,0.48,0,1,2228.84501,89.4394718,justin3,1,2020_Dec_11_1054,testDots,2020.2.5,59.9436826
169,0,21,0,94.840213,95.8401419,95.8236102,96.1236326,96.1236326,97.1241555,97.1241555,98.124554,right,2.19761338,98.124554,None,0.24,0,1,2234.23036,94.823631,justin3,1,2020_Dec_11_1054,testDots,2020.2.5,59.9436826
170,0,22,0,100.358477,101.358319,101.341074,101.641212,101.641212,102.642029,102.642029,103.641237,right,0.52092683,103.641237,None,0.03,180,0,2239.74806,100.341046,justin3,1,2020_Dec_11_1054,testDots,2020.2.5,59.9436826
171,0,23,0,104.208669,105.230026,105.230026,105.541707,105.493174,106.508924,106.494657,107.495663,left,0.12252943,107.495663,None,0.06,0,0,2243.60056,104.195896,justin3,1,2020_Dec_11_1054,testDots,2020.2.5,59.9436826
172,0,24,0,107.66278,108.675909,108.642217,108.942466,108.942466,109.943676,109.943676,110.946804,left,0.51936767,110.946804,None,0.12,0,0,2247.04784,107.642799,justin3,1,2020_Dec_11_1054,testDots,2020.2.5,59.9436826
173,0,25,0,111.509533,112.509535,112.492977,112.795938,112.795938,113.809744,113.795847,114.793207,right,0.17691252,114.793207,None,0.12,180,0,2250.901,111.493505,justin3,1,2020_Dec_11_1054,testDots,2020.2.5,59.9436826
174,0,26,0,115.010119,116.011395,115.993532,116.293469,116.293469,117.293836,117.293836,118.293659,right,0.24452754,118.293659,None,0.03,0,1,2254.39951,114.993499,justin3,1,2020_Dec_11_1054,testDots,2020.2.5,59.9436826
175,0,27,0,118.577222,119.577458,119.560808,119.860985,119.860985,120.860863,120.860863,121.8615,right,0.23661984,121.8615,None,0.24,0,1,2257.96658,118.560939,justin3,1,2020_Dec_11_1054,testDots,2020.2.5,59.9436826
176,0,28,0,122.145176,123.148325,123.128429,123.427959,123.427959,124.428193,124.428193,125.428134,left,0.18197391,125.428134,None,0.06,180,1,2261.53665,122.131588,justin3,1,2020_Dec_11_1054,testDots,2020.2.5,59.9436826
177,0,29,0,125.644976,126.645278,126.630373,126.94518,126.931075,127.945479,127.928715,128.928897,left,0.19327646,128.928897,None,0.48,180,1,2265.03444,125.628474,justin3,1,2020_Dec_11_1054,testDots,2020.2.5,59.9436826
178,0,30,0,129.162913,130.162587,130.145986,130.445742,130.445742,131.446096,131.446096,132.446279,left,0.37987941,132.446279,None,0.24,180,1,2268.55205,129.146736,justin3,1,2020_Dec_11_1054,testDots,2020.2.5,59.9436826
179,0,31,0,132.864617,133.879592,133.846533,134.146227,134.146227,135.14686,135.14686,136.149559,left,1.71659528,136.149559,None,0.06,0,0,2272.25326,132.846298,justin3,1,2020_Dec_11_1054,testDots,2020.2.5,59.9436826
180,0,32,0,137.913918,138.91419,138.898139,139.201135,139.201135,140.213931,140.197604,141.197572,left,0.23657769,141.197572,None,0.12,180,1,2277.30224,137.897132,justin3,1,2020_Dec_11_1054,testDots,2020.2.5,59.9436826
181,0,33,0,141.481155,142.480556,142.46442,142.765478,142.765478,143.764577,143.764577,144.765053,left,0.18109339,144.765053,None,0.48,180,1,2280.87002,141.4642,justin3,1,2020_Dec_11_1054,testDots,2020.2.5,59.9436826
182,0,34,0,144.981566,145.981786,145.964661,146.264795,146.264795,147.265327,147.265327,148.265375,left,0.21674434,148.265375,None,0.03,180,1,2284.37062,144.965044,justin3,1,2020_Dec_11_1054,testDots,2020.2.5,59.9436826
183,0,35,0,148.532923,149.548678,149.515177,149.818764,149.818764,150.833322,150.815776,151.816029,left,0.49011407,151.816029,None,0.06,180,1,2287.92111,148.515332,justin3,1,2020_Dec_11_1054,testDots,2020.2.5,59.9436826
184,0,36,0,152.349804,153.350644,153.333088,153.632884,153.632884,154.6332,154.6332,155.63337,left,1.52078192,155.63337,None,0.12,180,1,2291.73915,152.332645,justin3,1,2020_Dec_11_1054,testDots,2020.2.5,59.9436826
185,0,37,0,157.200163,158.201183,158.183632,158.48364,158.48364,159.483886,159.483886,160.484009,right,0.62221566,160.484009,None,0.48,0,1,2296.5896,157.184294,justin3,1,2020_Dec_11_1054,testDots,2020.2.5,59.9436826
186,0,38,0,161.150799,162.153598,162.136345,162.434299,162.434299,163.434623,163.434623,164.434587,right,0.76757647,164.434587,None,0.03,0,1,2300.54189,161.136157,justin3,1,2020_Dec_11_1054,testDots,2020.2.5,59.9436826
187,0,39,0,165.253326,166.268084,166.235418,166.534914,166.534914,167.535051,167.535051,168.535311,right,0.42681343,168.535311,None,0.24,0,1,2304.64091,165.235415,justin3,1,2020_Dec_11_1054,testDots,2020.2.5,59.9436826
188,0,40,0,169.002127,170.002146,169.985676,170.285835,170.285835,171.286234,171.286234,172.285994,left,0.74015813,172.285994,None,0.48,180,1,2308.39146,168.985809,justin3,1,2020_Dec_11_1054,testDots,2020.2.5,59.9436826
189,0,41,0,173.073003,174.086241,174.053654,174.353284,174.353284,175.35789,175.35789,176.357173,right,0.23696977,176.357173,None,0.12,0,1,2312.45896,173.052624,justin3,1,2020_Dec_11_1054,testDots,2020.2.5,59.9436826
190,0,42,0,176.636703,177.636979,177.620284,177.920254,177.920254,178.920363,178.920363,179.920444,right,0.13770034,179.920444,None,0.03,180,0,2316.02627,176.619972,justin3,1,2020_Dec_11_1054,testDots,2020.2.5,59.9436826
191,0,43,0,180.104089,181.104102,181.087308,181.389266,181.389266,182.404376,182.391282,183.387932,right,0.27824056,183.387932,None,0.06,0,1,2319.49311,180.087305,justin3,1,2020_Dec_11_1054,testDots,2020.2.5,59.9436826
192,0,44,0,183.704885,184.705106,184.68798,184.987902,184.987902,185.988066,185.988066,186.988485,left,0.30965291,186.988485,None,0.24,180,1,2323.09526,183.688194,justin3,1,2020_Dec_11_1054,testDots,2020.2.5,59.9436826
193,0,45,0,187.3389,188.339684,188.324278,188.638656,188.624794,189.638712,189.622237,190.62236,right,0.22780206,190.62236,None,0.24,0,1,2326.72776,187.322537,justin3,1,2020_Dec_11_1054,testDots,2020.2.5,59.9436826
194,0,46,0,190.890072,191.890379,191.876821,192.189304,192.172402,193.172605,193.172605,194.172935,right,0.38921536,194.172935,None,0.06,180,0,2330.27865,190.872742,justin3,1,2020_Dec_11_1054,testDots,2020.2.5,59.9436826
195,0,47,0,194.606308,195.606464,195.590015,195.889977,195.889977,196.88988,196.88988,197.890618,right,0.17551497,197.890618,None,0.03,0,1,2333.99518,194.589793,justin3,1,2020_Dec_11_1054,testDots,2020.2.5,59.9436826
196,0,48,0,198.11105,199.125659,199.090349,199.390445,199.406957,200.407198,200.390329,201.391174,right,0.39496179,201.391174,None,0.12,0,1,2337.50144,198.094004,justin3,1,2020_Dec_11_1054,testDots,2020.2.5,59.9436826
197,0,49,0,201.826071,202.841508,202.808295,203.107657,203.107657,204.110314,204.110314,205.113288,right,0.24884965,205.113288,None,0.48,0,1,2341.21313,201.807598,justin3,1,2020_Dec_11_1054,testDots,2020.2.5,59.9436826
198,0,50,0,205.408332,206.408195,206.392014,206.691543,206.691543,207.691795,207.691795,208.691707,right,0.29446645,208.691707,None,0.06,0,1,2344.79701,205.391351,justin3,1,2020_Dec_11_1054,testDots,2020.2.5,59.9436826
199,0,51,0,209.025552,210.025424,210.008706,210.30991,210.30991,211.311832,211.311832,212.309131,right,0.21305817,212.309131,None,0.03,0,1,2348.41516,209.008809,justin3,1,2020_Dec_11_1054,testDots,2020.2.5,59.9436826
200,0,52,0,212.559224,213.559146,213.544404,213.861164,213.84259,214.843472,214.843472,215.842877,right,1.46332066,215.842877,None,0.24,0,1,2351.94756,212.542646,justin3,1,2020_Dec_11_1054,testDots,2020.2.5,59.9436826
201,0,53,0,217.346061,218.360025,218.326959,218.626685,218.626685,219.627224,219.627224,220.62858,left,0.30161932,220.62858,None,0.48,180,1,2356.73877,217.331936,justin3,1,2020_Dec_11_1054,testDots,2020.2.5,59.9436826
202,0,54,0,220.977633,221.977258,221.960749,222.260982,222.260982,223.261702,223.261702,224.261164,right,0.27696456,224.261164,None,0.12,0,1,2360.36638,220.961398,justin3,1,2020_Dec_11_1054,testDots,2020.2.5,59.9436826
203,0,55,0,224.582073,225.594688,225.561222,225.862149,225.862149,226.862541,226.862541,227.845034,left,0.27709367,227.845034,None,0.06,180,1,2363.96674,224.561707,justin3,1,2020_Dec_11_1054,testDots,2020.2.5,59.9436826
204,0,56,0,228.161904,229.162073,229.146309,229.445127,229.445127,230.449135,230.449135,231.445352,left,0.2047856,231.445352,None,0.48,180,1,2367.55126,228.145545,justin3,1,2020_Dec_11_1054,testDots,2020.2.5,59.9436826
205,0,57,0,231.695779,232.696278,232.679102,232.979247,232.979247,233.979355,233.979355,234.979561,right,0.07863616,234.979561,None,0.12,180,0,2371.08492,231.679031,justin3,1,2020_Dec_11_1054,testDots,2020.2.5,59.9436826
206,0,58,0,235.096839,236.096506,236.07983,236.382809,236.382809,237.396678,237.379626,238.380056,left,0.03814074,238.380056,None,0.03,180,1,2374.48556,235.080451,justin3,1,2020_Dec_11_1054,testDots,2020.2.5,59.9436826
207,0,59,0,238.464036,239.463735,239.446902,239.747025,239.747025,240.747596,240.747596,241.747032,right,0.13513032,241.747032,None,0.24,0,1,2377.85356,238.446792,justin3,1,2020_Dec_11_1054,testDots,2020.2.5,59.9436826
208,0,60,0,241.932297,242.93068,242.914999,243.216401,243.216401,244.230844,244.21736,245.214478,right,0.09168431,245.214478,None,0.03,180,0,2381.31922,241.914037,justin3,1,2020_Dec_11_1054,testDots,2020.2.5,59.9436826
209,0,61,0,245.34806,246.347966,246.333644,246.648051,246.631133,247.634703,247.634703,248.631737,left,0.16245873,248.631737,None,0.48,180,1,2384.73772,245.331437,justin3,1,2020_Dec_11_1054,testDots,2020.2.5,59.9436826
210,0,62,0,248.831922,249.832335,249.815874,250.118406,250.118406,251.133653,251.115101,252.115597,right,0.03853715,252.115597,None,0.06,180,0,2388.22109,248.815563,justin3,1,2020_Dec_11_1054,testDots,2020.2.5,59.9436826
211,0,63,0,252.199729,253.20053,253.182906,253.482574,253.482574,254.482736,254.482736,255.48284,left,2.58329491,255.48284,None,0.24,0,0,2391.58954,252.182954,justin3,1,2020_Dec_11_1054,testDots,2020.2.5,59.9436826
212,0,64,0,258.100669,259.101876,259.084114,259.38363,259.38363,260.384786,260.384786,261.383793,left,0.29035502,261.383793,None,0.12,180,1,2397.48885,258.083245,justin3,1,2020_Dec_11_1054,testDots,2020.2.5,59.9436826
213,0,65,0,261.717301,262.718085,262.700861,263.000656,263.000656,264.000837,264.000837,265.001054,left,0.10506975,265.001054,None,0.03,180,1,2401.1074,261.701188,justin3,1,2020_Dec_11_1054,testDots,2020.2.5,59.9436826
214,0,66,0,265.15159,266.151547,266.139275,266.451245,266.437496,267.45226,267.434755,268.435087,right,0.08706918,268.435087,None,0.48,0,1,2404.54077,265.13458,justin3,1,2020_Dec_11_1054,testDots,2020.2.5,59.9436826
215,0,67,0,268.568309,269.568415,269.55279,269.868826,269.851462,270.851973,270.851973,271.852085,right,0.23011879,271.852085,None,0.24,0,1,2407.95827,268.552425,justin3,1,2020_Dec_11_1054,testDots,2020.2.5,59.9436826
216,0,68,0,272.119979,273.119019,273.103487,273.40222,273.40222,274.402503,274.402503,275.402872,left,0.11126228,275.402872,None,0.12,180,1,2411.50855,272.102886,justin3,1,2020_Dec_11_1054,testDots,2020.2.5,59.9436826
217,0,69,0,275.554699,276.569732,276.536344,276.836297,276.836297,277.836686,277.836686,278.853903,left,0.12425981,278.853903,None,0.06,180,1,2414.94664,275.537403,justin3,1,2020_Dec_11_1054,testDots,2020.2.5,59.9436826
218,0,70,0,279.020013,280.02024,280.003202,280.303378,280.303378,281.303742,281.303742,282.303873,left,0.13030415,282.303873,None,0.12,180,1,2418.41048,279.003542,justin3,1,2020_Dec_11_1054,testDots,2020.2.5,59.9436826
219,0,71,0,282.471217,283.470655,283.453949,283.753927,283.753927,284.754224,284.754224,285.754458,left,0.20768778,285.754458,None,0.48,180,1,2421.85917,282.454082,justin3,1,2020_Dec_11_1054,testDots,2020.2.5,59.9436826
220,0,72,0,286.005519,287.004714,286.988054,287.287897,287.287897,288.289513,288.289513,289.272562,right,1.64159642,289.272562,None,0.06,0,1,2425.39501,285.98965,justin3,1,2020_Dec_11_1054,testDots,2020.2.5,59.9436826
221,0,73,0,290.955287,291.955592,291.941599,292.255509,292.240198,293.255728,293.242581,294.239171,left,1.58703463,294.239171,None,0.03,0,0,2430.34431,290.93889,justin3,1,2020_Dec_11_1054,testDots,2020.2.5,59.9436826
222,0,74,0,295.860688,296.873153,296.839771,297.142255,297.142255,298.156506,298.139962,299.123661,right,1.49451896,299.123661,None,0.24,0,1,2435.25434,295.843696,justin3,1,2020_Dec_11_1054,testDots,2020.2.5,59.9436826
223,0,75,0,300.657128,301.657283,301.640336,301.940686,301.940686,302.940696,302.940696,303.940739,left,2.36539971,303.940739,None,0.06,180,1,2440.04627,300.640545,justin3,1,2020_Dec_11_1054,testDots,2020.2.5,59.9436826
224,0,76,0,306.341076,307.341706,307.325355,307.624814,307.624814,308.624404,308.624404,309.625277,right,0.15287939,309.625277,None,0.12,0,1,2445.7311,306.32542,justin3,1,2020_Dec_11_1054,testDots,2020.2.5,59.9436826
225,0,77,0,309.825193,310.825243,310.809078,311.112118,311.112118,312.126812,312.108565,313.109341,left,0.1967891,313.109341,None,0.03,180,1,2449.21414,309.808318,justin3,1,2020_Dec_11_1054,testDots,2020.2.5,59.9436826
226,0,78,0,313.342696,314.342665,314.326418,314.625822,314.625822,315.625748,315.625748,316.626235,left,0.0639045,316.626235,None,0.24,0,0,2452.73187,313.325721,justin3,1,2020_Dec_11_1054,testDots,2020.2.5,59.9436826
227,0,79,0,316.726164,317.726665,317.710815,318.011534,317.995633,318.993258,319.009511,320.010048,right,0.24011128,320.010048,None,0.48,0,1,2456.1149,316.709594,justin3,1,2020_Dec_11_1054,testDots,2020.2.5,59.9436826
228,0,80,0,320.293657,321.294604,321.277186,321.577035,321.577035,322.577007,322.577007,323.577248,left,0.40088384,323.577248,None,0.48,180,1,2459.68353,320.277518,justin3,1,2020_Dec_11_1054,testDots,2020.2.5,59.9436826
229,0,81,0,324.028199,325.02796,325.01189,325.327733,325.311261,326.311066,326.311066,327.311709,left,0.20247402,327.311709,None,0.06,0,0,2463.4158,324.010736,justin3,1,2020_Dec_11_1054,testDots,2020.2.5,59.9436826
230,0,82,0,327.562057,328.565835,328.544737,328.844649,328.844649,329.8448,329.8448,330.844753,right,0.34940841,330.844753,None,0.03,0,1,2466.9543,327.546559,justin3,1,2020_Dec_11_1054,testDots,2020.2.5,59.9436826
231,0,83,0,331.229403,332.228679,332.21198,332.512109,332.512109,333.51232,333.51232,334.51307,right,1.03307104,334.51307,None,0.12,0,1,2470.61882,331.212572,justin3,1,2020_Dec_11_1054,testDots,2020.2.5,59.9436826
232,0,84,0,335.579147,336.579794,336.56282,336.862755,336.862755,337.862943,337.862943,338.863138,left,0.9309953,338.863138,None,0.24,180,1,2474.96942,335.562785,justin3,1,2020_Dec_11_1054,testDots,2020.2.5,59.9436826
233,0,85,0,339.830122,340.831051,340.813512,341.113619,341.113619,342.113705,342.113705,343.113749,right,0.1364066,343.113749,None,0.24,180,0,2479.21924,339.813325,justin3,1,2020_Dec_11_1054,testDots,2020.2.5,59.9436826
234,0,86,0,343.297521,344.297428,344.281328,344.583288,344.583288,345.597556,345.580876,346.58101,right,0.07711022,346.58101,None,0.48,180,0,2482.68575,343.280667,justin3,1,2020_Dec_11_1054,testDots,2020.2.5,59.9436826
235,0,87,0,346.698204,347.699895,347.681468,347.981311,347.981311,348.981311,348.981311,349.981299,left,0.18085286,349.981299,None,0.06,0,0,2486.09063,346.681436,justin3,1,2020_Dec_11_1054,testDots,2020.2.5,59.9436826
236,0,88,0,350.199172,351.198479,351.184782,351.498425,351.481581,352.481935,352.481935,353.482206,left,0.0159451,353.482206,None,0.03,0,0,2489.58758,350.181882,justin3,1,2020_Dec_11_1054,testDots,2020.2.5,59.9436826
237,0,89,0,353.532298,354.534545,354.515811,354.815796,354.815796,355.81606,355.81606,356.818039,left,2.94414065,356.818039,None,0.12,0,0,2492.92058,353.515582,justin3,1,2020_Dec_11_1054,testDots,2020.2.5,59.9436826
238,0,0,0,11.6115972,12.626878,12.5929987,12.8931417,12.8931417,13.8945393,13.8945393,14.8949009,right,0.20633385,14.8949009,None,0.24,0,1,2531.22605,11.5929392,justin4,1,2020_Dec_11_1100,testDots,2020.2.5,60.0600911
239,0,1,0,15.1434114,16.143725,16.1308925,16.4438299,16.4265104,17.4273918,17.4273918,18.4271617,left,0.36211584,18.4271617,None,0.48,180,1,2534.76246,15.1268809,justin4,1,2020_Dec_11_1100,testDots,2020.2.5,60.0600911
240,0,2,0,18.8274404,19.8275747,19.8138882,20.127878,20.1107678,21.1110647,21.1110647,22.1111811,left,0.11805064,22.1111811,None,0.12,0,0,2538.44514,18.8110141,justin4,1,2020_Dec_11_1100,testDots,2020.2.5,60.0600911
241,0,3,0,22.2782142,23.2780239,23.2609304,23.5656884,23.5656884,24.578212,24.5616326,25.562302,right,0.09894473,25.562302,None,0.03,0,1,2541.89629,22.2615046,justin4,1,2020_Dec_11_1100,testDots,2020.2.5,60.0600911
242,0,4,0,25.6961657,26.6953441,26.682261,26.9952527,26.9785961,27.978848,27.978848,28.9791185,right,0.0661261,28.9791185,None,0.06,0,1,2545.31326,25.6789018,justin4,1,2020_Dec_11_1100,testDots,2020.2.5,60.0600911
243,0,5,0,29.0791006,30.0789325,30.0622905,30.3623802,30.3623802,31.3630635,31.3630635,32.3632007,left,0.06604437,32.3632007,None,0.48,180,1,2548.69826,29.0624961,justin4,1,2020_Dec_11_1100,testDots,2020.2.5,60.0600911
244,0,6,0,32.4637024,33.4630806,33.446281,33.7464096,33.7464096,34.7466058,34.7466058,35.7468939,left,0.01035194,35.7468939,None,0.06,180,1,2552.08119,32.4463268,justin4,1,2020_Dec_11_1100,testDots,2020.2.5,60.0600911
245,0,7,0,35.7995234,36.8136531,36.8010152,37.1135696,37.0973495,38.0975633,38.0975633,39.097657,right,2.76361542,39.097657,None,0.24,0,1,2555.42184,35.7826999,justin4,1,2020_Dec_11_1100,testDots,2020.2.5,60.0600911
246,0,8,0,41.90153,42.9159329,42.8811681,43.1812316,43.1812316,44.1813381,44.1813381,45.1833043,left,0.13393385,45.1833043,None,0.03,180,1,2561.51591,41.8816366,justin4,1,2020_Dec_11_1100,testDots,2020.2.5,60.0600911
247,0,9,0,45.3655827,46.3654016,46.3483382,46.6484542,46.6484542,47.6486916,47.6486916,48.649154,right,0.02009117,48.649154,None,0.12,180,0,2564.98282,45.3481262,justin4,1,2020_Dec_11_1100,testDots,2020.2.5,60.0600911
248,0,10,0,48.7162169,49.7158939,49.699082,49.9992843,49.9992843,50.9992989,50.9992989,51.9996745,left,1.11756623,51.9996745,None,0.48,180,1,2568.33479,48.6988878,justin4,1,2020_Dec_11_1100,testDots,2020.2.5,60.0600911
249,0,11,0,53.1669598,54.1671386,54.149612,54.4498131,54.4498131,55.4504073,55.4504073,56.4499979,left,2.11525581,56.4499979,None,0.06,180,1,2572.78457,53.1496178,justin4,1,2020_Dec_11_1100,testDots,2020.2.5,60.0600911
250,0,12,0,58.60074,59.6008564,59.5842538,59.8840753,59.8840753,60.8853394,60.8853394,61.8845362,right,1.78472303,61.8845362,None,0.12,0,1,2578.21907,58.583978,justin4,1,2020_Dec_11_1100,testDots,2020.2.5,60.0600911
251,0,13,0,63.7179982,64.7192715,64.7020921,65.0022133,65.0022133,66.0016907,66.0016907,67.0024859,left,0.88274666,67.0024859,None,0.24,180,1,2583.33606,63.7013636,justin4,1,2020_Dec_11_1100,testDots,2020.2.5,60.0600911
252,0,14,0,67.9193784,68.9203951,68.9021642,69.2021203,69.2021203,70.2023026,70.2023026,71.2027298,left,0.72251465,71.2027298,None,0.03,0,0,2587.53786,67.9022074,justin4,1,2020_Dec_11_1100,testDots,2020.2.5,60.0600911
253,0,15,0,71.9706843,72.9859851,72.9528293,73.2530287,73.2530287,74.2529848,74.2529848,75.2531468,left,0.39209122,75.2531468,None,0.24,180,1,2591.58735,71.9530284,justin4,1,2020_Dec_11_1100,testDots,2020.2.5,60.0600911
254,0,16,0,75.6875383,76.6869481,76.6700481,76.9700988,76.9700988,77.9702684,77.9702684,78.9703333,left,1.20290743,78.9703333,None,0.03,0,0,2595.30473,75.6700301,justin4,1,2020_Dec_11_1100,testDots,2020.2.5,60.0600911
255,0,17,0,80.2206179,81.2212283,81.2042042,81.5087965,81.5087965,82.5212156,82.5044068,83.5046177,right,0.50065479,83.5046177,None,0.48,0,1,2599.83859,80.2040344,justin4,1,2020_Dec_11_1100,testDots,2020.2.5,60.0600911
256,0,18,0,84.0566347,85.0714187,85.0252395,85.3380233,85.3251712,86.338902,86.3218304,87.321903,left,1.1553572,87.321903,None,0.06,0,0,2603.6781,84.0379512,justin4,1,2020_Dec_11_1100,testDots,2020.2.5,60.0600911
257,0,19,0,88.5239607,89.5391376,89.5056006,89.8054957,89.8054957,90.8065228,90.8065228,91.805823,left,1.27147717,91.805823,None,0.12,180,1,2608.1413,88.5065728,justin4,1,2020_Dec_11_1100,testDots,2020.2.5,60.0600911
258,0,20,0,93.122834,94.1230018,94.1075261,94.4229535,94.4074137,95.4068403,95.4068403,96.4071065,right,0.13413844,96.4071065,None,0.03,0,1,2612.74128,93.1062477,justin4,1,2020_Dec_11_1100,testDots,2020.2.5,60.0600911
259,0,21,0,96.5906733,97.5907426,97.5737798,97.8734727,97.8734727,98.8745404,98.8745404,99.8744063,left,0.25081677,99.8744063,None,0.12,0,0,2616.20895,96.5743309,justin4,1,2020_Dec_11_1100,testDots,2020.2.5,60.0600911
260,0,22,0,100.173912,101.177578,101.157319,101.457503,101.457503,102.457439,102.457439,103.457548,right,0.05967576,103.457548,None,0.06,180,0,2619.79427,100.158661,justin4,1,2020_Dec_11_1100,testDots,2020.2.5,60.0600911
261,0,23,0,103.55808,104.557534,104.541266,104.841423,104.841423,105.841683,105.841683,106.84151,right,0.16375831,106.84151,None,0.24,0,1,2623.17742,103.541398,justin4,1,2020_Dec_11_1100,testDots,2020.2.5,60.0600911
262,0,24,0,107.041892,108.041966,108.02509,108.325456,108.325456,109.325351,109.325351,110.328573,left,0.06866949,110.328573,None,0.48,180,1,2626.66003,107.025638,justin4,1,2020_Dec_11_1100,testDots,2020.2.5,60.0600911
263,0,25,0,110.442609,111.442391,111.430221,111.742477,111.726045,112.726346,112.726346,113.726445,right,2.02282653,113.726445,None,0.06,180,0,2630.06043,110.426153,justin4,1,2020_Dec_11_1100,testDots,2020.2.5,60.0600911
264,0,26,0,115.793106,116.795487,116.776966,117.076917,117.076917,118.077019,118.077019,119.076818,left,0.04844211,119.076818,None,0.24,180,1,2635.41158,115.776204,justin4,1,2020_Dec_11_1100,testDots,2020.2.5,60.0600911
265,0,27,0,119.160549,120.160683,120.144804,120.447208,120.447208,121.460833,121.444147,122.444285,left,0.15296277,122.444285,None,0.12,180,1,2638.78029,119.144224,justin4,1,2020_Dec_11_1100,testDots,2020.2.5,60.0600911
266,0,28,0,122.645377,123.66501,123.627207,123.931144,123.931144,124.945088,124.928162,125.928469,left,0.07676751,125.928469,None,0.03,180,1,2642.26236,122.627846,justin4,1,2020_Dec_11_1100,testDots,2020.2.5,60.0600911
267,0,29,0,126.044876,127.047047,127.028365,127.328438,127.328438,128.329154,128.329154,129.32902,left,0.09223591,129.32902,None,0.48,180,1,2645.66611,126.028296,justin4,1,2020_Dec_11_1100,testDots,2020.2.5,60.0600911
268,0,30,0,129.462473,130.465069,130.445658,130.74562,130.74562,131.745825,131.745825,132.746071,left,0.05116311,132.746071,None,0.03,0,0,2649.08101,129.446559,justin4,1,2020_Dec_11_1100,testDots,2020.2.5,60.0600911
269,0,31,0,132.845914,133.845719,133.829414,134.129419,134.129419,135.129983,135.129983,136.129864,left,0.04335318,136.129864,None,0.06,180,1,2652.46617,132.829804,justin4,1,2020_Dec_11_1100,testDots,2020.2.5,60.0600911
270,0,32,0,136.213281,137.213246,137.196216,137.496563,137.496563,138.496916,138.496916,139.497231,left,1.89199478,139.497231,None,0.24,180,1,2655.83182,136.196802,justin4,1,2020_Dec_11_1100,testDots,2020.2.5,60.0600911
271,0,33,0,141.432049,142.447651,142.414325,142.714268,142.714268,143.714156,143.714156,144.714413,right,0.22682323,144.714413,None,0.12,0,1,2661.04904,141.414694,justin4,1,2020_Dec_11_1100,testDots,2020.2.5,60.0600911
272,0,34,0,144.981334,145.981371,145.964778,146.264893,146.264893,147.264949,147.264949,148.265055,left,0.03624382,148.265055,None,0.48,180,1,2664.60025,144.965216,justin4,1,2020_Dec_11_1100,testDots,2020.2.5,60.0600911
273,0,35,0,148.348546,149.348702,149.334234,149.649379,149.636233,150.648895,150.632249,151.632241,right,0.35699371,151.632241,None,0.06,180,0,2667.96783,148.332384,justin4,1,2020_Dec_11_1100,testDots,2020.2.5,60.0600911
274,0,36,0,152.032247,153.032846,153.019211,153.332623,153.319499,154.332696,154.316156,155.316283,right,1.14499964,155.316283,None,0.24,0,1,2671.65103,152.015968,justin4,1,2020_Dec_11_1100,testDots,2020.2.5,60.0600911
275,0,37,0,156.502058,157.516563,157.483315,157.783073,157.783073,158.785534,158.785534,159.786733,left,0.17050966,159.786733,None,0.48,180,1,2676.1208,156.48691,justin4,1,2020_Dec_11_1100,testDots,2020.2.5,60.0600911
276,0,38,0,160.000692,161.000657,160.983792,161.283861,161.283861,162.284096,162.284096,163.284209,left,0.12102554,163.284209,None,0.12,180,1,2679.61803,159.983703,justin4,1,2020_Dec_11_1100,testDots,2020.2.5,60.0600911
277,0,39,0,163.451173,164.451212,164.434502,164.734316,164.734316,165.73474,165.73474,166.734852,left,0.06247338,166.734852,None,0.03,0,0,2683.069,163.434678,justin4,1,2020_Dec_11_1100,testDots,2020.2.5,60.0600911
278,0,40,0,166.835562,167.835822,167.818348,168.118333,168.118333,169.119123,169.119123,170.118459,right,0.03081514,170.118459,None,0.24,180,0,2686.45297,166.818609,justin4,1,2020_Dec_11_1100,testDots,2020.2.5,60.0600911
279,0,41,0,170.185243,171.18553,171.168728,171.46901,171.46901,172.469496,172.469496,173.46924,left,1.7360022,173.46924,None,0.06,0,0,2689.80365,170.16937,justin4,1,2020_Dec_11_1100,testDots,2020.2.5,60.0600911
280,0,42,0,175.253785,176.253055,176.240828,176.553,176.536035,177.536796,177.536796,178.537028,left,2.26015452,178.537028,None,0.12,180,1,2694.87128,175.236236,justin4,1,2020_Dec_11_1100,testDots,2020.2.5,60.0600911
281,0,43,0,180.837235,181.839623,181.820748,182.120747,182.120747,183.12164,183.12164,184.121543,right,0.2596933,184.121543,None,0.48,0,1,2700.45553,180.820721,justin4,1,2020_Dec_11_1100,testDots,2020.2.5,60.0600911
282,0,44,0,184.421133,185.424482,185.404824,185.704504,185.704504,186.704642,186.704642,187.704838,left,0.06039142,187.704838,None,0.03,180,1,2704.04155,184.405442,justin4,1,2020_Dec_11_1100,testDots,2020.2.5,60.0600911
283,0,45,0,187.804939,188.807946,188.788421,189.088515,189.088515,190.088797,190.088797,191.088754,right,0.02050246,191.088754,None,0.12,180,0,2707.42626,187.788366,justin4,1,2020_Dec_11_1100,testDots,2020.2.5,60.0600911
284,0,46,0,191.155489,192.155669,192.13894,192.439571,192.439571,193.439101,193.439101,194.440473,right,0.26076825,194.440473,None,0.48,0,1,2710.77356,191.139135,justin4,1,2020_Dec_11_1100,testDots,2020.2.5,60.0600911
285,0,47,0,194.740939,195.756075,195.723252,196.022847,196.022847,197.024013,197.024013,198.024546,right,0.1966822,198.024546,None,0.24,0,1,2714.36159,194.724973,justin4,1,2020_Dec_11_1100,testDots,2020.2.5,60.0600911
286,0,48,0,198.258134,199.27328,199.240056,199.54,199.54,200.540189,200.540189,201.542922,right,0.01436134,201.542922,None,0.06,180,0,2717.87534,198.240829,justin4,1,2020_Dec_11_1100,testDots,2020.2.5,60.0600911
287,0,49,0,201.591149,202.590578,202.578658,202.890727,202.873849,203.87431,203.87431,204.874627,left,0.05062183,204.874627,None,0.03,0,0,2721.209,201.574474,justin4,1,2020_Dec_11_1100,testDots,2020.2.5,60.0600911
288,0,50,0,204.958933,205.97442,205.941054,206.241244,206.241244,207.241282,207.241282,208.243428,right,0.01780607,208.243428,None,0.06,0,1,2724.58112,204.944073,justin4,1,2020_Dec_11_1100,testDots,2020.2.5,60.0600911
289,0,51,0,208.309291,209.308449,209.29181,209.592519,209.592519,210.593825,210.593825,211.592186,right,2.15704932,211.592186,None,0.03,180,0,2727.92921,208.293261,justin4,1,2020_Dec_11_1100,testDots,2020.2.5,60.0600911
290,0,52,0,213.792457,214.792833,214.779599,215.092633,215.078274,216.092765,216.076051,217.076317,right,0.17692675,217.076317,None,0.24,0,1,2733.41058,213.775892,justin4,1,2020_Dec_11_1100,testDots,2020.2.5,60.0600911
291,0,53,0,217.293424,218.295756,218.276736,218.576438,218.576438,219.576517,219.576517,220.576744,right,0.164486,220.576744,None,0.12,0,1,2736.91404,217.277798,justin4,1,2020_Dec_11_1100,testDots,2020.2.5,60.0600911
292,0,54,0,220.776985,221.776761,221.760405,222.060318,222.060318,223.060767,223.060767,224.060901,right,0.14439564,224.060901,None,0.48,0,1,2740.39732,220.761117,justin4,1,2020_Dec_11_1100,testDots,2020.2.5,60.0600911
293,0,55,0,224.245374,225.265044,225.227604,225.527722,225.527722,226.527876,226.527876,227.528119,left,0.24515661,227.528119,None,0.48,180,1,2743.8624,224.228207,justin4,1,2020_Dec_11_1100,testDots,2020.2.5,60.0600911
294,0,56,0,227.813549,228.828217,228.794967,229.094701,229.094701,230.09489,230.09489,231.100411,right,1.32877732,231.100411,None,0.06,0,1,2747.43182,227.79795,justin4,1,2020_Dec_11_1100,testDots,2020.2.5,60.0600911
295,0,57,0,232.479041,233.480196,233.462492,233.762402,233.762402,234.762516,234.762516,235.762635,left,0.85058635,235.762635,None,0.03,180,1,2752.09678,232.462154,justin4,1,2020_Dec_11_1100,testDots,2020.2.5,60.0600911
296,0,58,0,236.663113,237.666141,237.64737,237.962798,237.946767,238.946356,238.946356,239.946439,left,1.21879823,239.946439,None,0.12,180,1,2756.28419,236.647634,justin4,1,2020_Dec_11_1100,testDots,2020.2.5,60.0600911
297,0,59,0,241.218389,242.230416,242.196949,242.497092,242.497092,243.497147,243.497147,244.500541,left,0.20873015,244.500541,None,0.24,180,1,2760.83236,241.196835,justin4,1,2020_Dec_11_1100,testDots,2020.2.5,60.0600911
298,0,60,0,244.748785,245.7476,245.731134,246.032608,246.032608,247.031379,247.031379,248.03134,right,0.3098885,248.03134,None,0.12,0,1,2764.36551,244.731254,justin4,1,2020_Dec_11_1100,testDots,2020.2.5,60.0600911
299,0,61,0,248.384284,249.398417,249.364878,249.66562,249.66562,250.665266,250.665266,251.669412,left,0.23987681,251.669412,None,0.48,180,1,2768.00021,248.36537,justin4,1,2020_Dec_11_1100,testDots,2020.2.5,60.0600911
300,0,62,0,251.948757,252.948932,252.932209,253.232189,253.232189,254.232141,254.232141,255.232438,right,0.14079645,255.232438,None,0.03,180,0,2771.56711,251.932387,justin4,1,2020_Dec_11_1100,testDots,2020.2.5,60.0600911
301,0,63,0,255.416025,256.416175,256.400847,256.71622,256.69923,257.699416,257.699416,258.699799,right,0.26544335,258.699799,None,0.24,0,1,2775.0333,255.399052,justin4,1,2020_Dec_11_1100,testDots,2020.2.5,60.0600911
302,0,64,0,259.000398,260.000094,259.984388,260.30017,260.286258,261.300245,261.283287,262.283774,right,0.16946132,262.283774,None,0.06,0,1,2778.61985,258.983041,justin4,1,2020_Dec_11_1100,testDots,2020.2.5,60.0600911
303,0,65,0,262.500487,263.505152,263.484454,263.784008,263.784008,264.784157,264.784157,265.784209,right,0.18902891,265.784209,None,0.48,0,1,2782.11959,262.484226,justin4,1,2020_Dec_11_1100,testDots,2020.2.5,60.0600911
304,0,66,0,266.017749,267.019557,267.00113,267.30115,267.30115,268.30127,268.30127,269.301399,right,0.11186442,269.301399,None,0.03,0,1,2785.63836,266.002147,justin4,1,2020_Dec_11_1100,testDots,2020.2.5,60.0600911
305,0,67,0,269.452478,270.472743,270.434692,270.738437,270.738437,271.751857,271.735219,272.735319,left,0.31794679,272.735319,None,0.12,180,1,2789.06966,269.435214,justin4,1,2020_Dec_11_1100,testDots,2020.2.5,60.0600911
306,0,68,0,273.088115,274.102163,274.089742,274.402251,274.385441,275.385616,275.385616,276.369234,left,0.1880012,276.369234,None,0.24,180,1,2792.71002,273.070553,justin4,1,2020_Dec_11_1100,testDots,2020.2.5,60.0600911
307,0,69,0,276.60427,277.619591,277.586017,277.886182,277.886182,278.88656,278.88656,279.886575,right,0.1186896,279.886575,None,0.06,180,0,2796.22636,276.58958,justin4,1,2020_Dec_11_1100,testDots,2020.2.5,60.0600911
308,0,70,0,280.057012,281.070002,281.036715,281.336718,281.336718,282.336875,282.336875,283.339292,right,0.08992942,283.339292,None,0.24,0,1,2799.67774,280.039439,justin4,1,2020_Dec_11_1100,testDots,2020.2.5,60.0600911
309,0,71,0,283.473135,284.487215,284.45383,284.75389,284.75389,285.754443,285.754443,286.758792,left,0.03043604,286.758792,None,0.03,180,1,2803.09139,283.457029,justin4,1,2020_Dec_11_1100,testDots,2020.2.5,60.0600911
310,0,72,0,286.824778,287.8377,287.804453,288.104523,288.104523,289.106426,289.106426,290.105339,left,0.09185027,290.105339,None,0.48,180,1,2806.44299,286.80813,justin4,1,2020_Dec_11_1100,testDots,2020.2.5,60.0600911
311,0,73,0,290.240301,291.255131,291.222028,291.521832,291.521832,292.521942,292.521942,293.526013,right,2.44723579,293.526013,None,0.06,0,1,2809.85575,290.221516,justin4,1,2020_Dec_11_1100,testDots,2020.2.5,60.0600911
312,0,74,0,296.006916,297.009184,296.989308,297.289188,297.289188,298.289299,298.289299,299.291296,left,0.18593899,299.291296,None,0.12,0,0,2815.62947,295.992521,justin4,1,2020_Dec_11_1100,testDots,2020.2.5,60.0600911
313,0,75,0,299.526427,300.539947,300.506967,300.806359,300.806359,301.8069,301.8069,302.807139,right,0.25410049,302.807139,None,0.12,0,1,2819.14449,299.510476,justin4,1,2020_Dec_11_1100,testDots,2020.2.5,60.0600911
314,0,76,0,303.109974,304.123877,304.091136,304.390471,304.390471,305.391163,305.391163,306.393669,right,0.30754964,306.393669,None,0.24,0,1,2822.72472,303.090007,justin4,1,2020_Dec_11_1100,testDots,2020.2.5,60.0600911
315,0,77,0,306.742144,307.741198,307.724603,308.024528,308.024528,309.025382,309.025382,310.024697,right,0.38057746,310.024697,None,0.06,180,0,2826.35867,306.724445,justin4,1,2020_Dec_11_1100,testDots,2020.2.5,60.0600911
316,0,78,0,310.441694,311.44167,311.426733,311.741917,311.72585,312.728576,312.728576,313.725496,right,0.63177106,313.725496,None,0.48,0,1,2830.05956,310.424891,justin4,1,2020_Dec_11_1100,testDots,2020.2.5,60.0600911
317,0,79,0,314.39227,315.392666,315.376839,315.692584,315.679991,316.692539,316.675908,317.676107,left,0.22512102,317.676107,None,0.03,180,1,2834.01134,314.375493,justin4,1,2020_Dec_11_1100,testDots,2020.2.5,60.0600911
318,0,80,0,317.943673,318.942943,318.929361,319.24293,319.230812,320.242882,320.226277,321.226498,right,0.09078301,321.226498,None,0.12,0,1,2837.56228,317.927221,justin4,1,2020_Dec_11_1100,testDots,2020.2.5,60.0600911
319,0,81,0,321.360659,322.360228,322.343066,322.646816,322.646816,323.660626,323.643838,324.64394,right,0.23327691,324.64394,None,0.06,0,1,2840.97775,321.343357,justin4,1,2020_Dec_11_1100,testDots,2020.2.5,60.0600911
320,0,82,0,324.910918,325.911859,325.893625,326.197736,326.197736,327.211213,327.19415,328.194529,left,0.09875293,328.194529,None,0.03,180,1,2844.52912,324.893798,justin4,1,2020_Dec_11_1100,testDots,2020.2.5,60.0600911
321,0,83,0,328.328362,329.327913,329.313771,329.627984,329.611223,330.611381,330.611381,331.611703,right,2.0895354,331.611703,None,0.48,180,0,2847.94735,328.31162,justin4,1,2020_Dec_11_1100,testDots,2020.2.5,60.0600911
322,0,84,0,333.745385,334.74866,334.729255,335.028864,335.028864,336.029156,336.029156,337.028991,left,0.32024887,337.028991,None,0.24,180,1,2853.36364,333.728408,justin4,1,2020_Dec_11_1100,testDots,2020.2.5,60.0600911
323,0,85,0,337.396208,338.399281,338.379575,338.679535,338.679535,339.679648,339.679648,340.679548,right,0.13369208,340.679548,None,0.03,0,1,2857.01516,337.379298,justin4,1,2020_Dec_11_1100,testDots,2020.2.5,60.0600911
324,0,86,0,340.863143,341.863408,341.846202,342.149698,342.149698,343.163762,343.147323,344.147183,left,0.2260735,344.147183,None,0.48,180,1,2860.48118,340.846498,justin4,1,2020_Dec_11_1100,testDots,2020.2.5,60.0600911
325,0,87,0,344.414762,345.434278,345.396776,345.69708,345.69708,346.697299,346.697299,347.697921,left,0.08331374,347.697921,None,0.12,180,1,2864.03144,344.397591,justin4,1,2020_Dec_11_1100,testDots,2020.2.5,60.0600911
326,0,88,0,347.83192,348.847764,348.81414,349.115331,349.115331,350.115143,350.115143,351.115356,left,0.25788298,351.115356,None,0.24,180,1,2867.44896,347.814288,justin4,1,2020_Dec_11_1100,testDots,2020.2.5,60.0600911
327,0,89,0,351.414735,352.415852,352.398293,352.698307,352.698307,353.698537,353.698537,354.698813,left,0.16245238,354.698813,None,0.06,0,0,2871.033,351.398526,justin4,1,2020_Dec_11_1100,testDots,2020.2.5,60.0600911
328,0,0,0,44.04312944,45.06031863,45.02488805,45.32842517,45.32842517,46.34166661,46.32506541,47.32517229,left,0.213587772,47.32517229,None,0.12,180,1,2938.291372,44.02402696,justin5,1,2020_Dec_11_1107,testDots,2020.2.5,60.59731733
329,0,1,0,47.57526332,48.5757294,48.5588696,48.85876012,48.85876012,49.85894017,49.85894017,50.85975066,right,0.030990074,50.85975066,None,0.48,0,1,2941.829586,47.5589138,justin5,1,2020_Dec_11_1107,testDots,2020.2.5,60.59731733
330,0,2,0,50.92633416,51.92950739,51.90933839,52.20921582,52.20921582,53.2093508,53.2093508,54.19299171,left,0.073749996,54.19299171,None,0.03,180,1,2945.182273,50.9096325,justin5,1,2020_Dec_11_1107,testDots,2020.2.5,60.59731733
331,0,3,0,54.30983815,55.3127939,55.29420308,55.59318693,55.59318693,56.59348347,56.59348347,57.59384944,left,0.04094355,57.59384944,None,0.06,180,1,2948.566972,54.29736257,justin5,1,2020_Dec_11_1107,testDots,2020.2.5,60.59731733
332,0,4,0,57.67717879,58.67705812,58.66289044,58.97706465,58.96340592,59.9778525,59.9606597,60.96073902,left,0.2820612,60.96073902,None,0.24,180,1,2951.928564,57.66020668,justin5,1,2020_Dec_11_1107,testDots,2020.2.5,60.59731733
333,0,5,0,61.28152124,62.29620952,62.26087861,62.56123673,62.56123673,63.56135894,63.56135894,64.56491257,right,0.061793961,64.56491257,None,0.48,0,1,2955.531548,61.26178592,justin5,1,2020_Dec_11_1107,testDots,2020.2.5,60.59731733
334,0,6,0,64.66319761,65.67808327,65.64485693,65.94538739,65.94538739,66.9448972,66.9448972,67.94768322,right,0.095112672,67.94768322,None,0.03,0,1,2958.916483,64.64636842,justin5,1,2020_Dec_11_1107,testDots,2020.2.5,60.59731733
335,0,7,0,68.08111268,69.09545474,69.06208241,69.36216598,69.36216598,70.36219646,70.36219646,71.36541255,left,0.101328682,71.36541255,None,0.06,180,1,2962.337055,68.06518978,justin5,1,2020_Dec_11_1107,testDots,2020.2.5,60.59731733
336,0,8,0,71.51265509,72.51319378,72.49607152,72.79606884,72.79606884,73.79691128,73.79691128,74.7966047,right,0.158158161,74.7966047,None,0.12,180,0,2965.76483,71.49585887,justin5,1,2020_Dec_11_1107,testDots,2020.2.5,60.59731733
337,0,9,0,74.9964943,75.99698124,75.97980639,76.2797984,76.2797984,77.2810784,77.2810784,78.28158443,right,0.241149645,78.28158443,None,0.24,0,1,2969.249657,74.98015406,justin5,1,2020_Dec_11_1107,testDots,2020.2.5,60.59731733
338,0,10,0,78.56839556,79.58066196,79.56362208,79.86402514,79.86402514,80.86446916,80.86446916,81.86467595,right,0.098073691,81.86467595,None,0.48,0,1,2972.825185,78.5520298,justin5,1,2020_Dec_11_1107,testDots,2020.2.5,60.59731733
339,0,11,0,81.99767015,82.99859274,82.9809467,83.28100386,83.28100386,84.28263745,84.28263745,85.28281161,left,0.183951768,85.28281161,None,0.24,180,1,2976.25058,81.98096793,justin5,1,2020_Dec_11_1107,testDots,2020.2.5,60.59731733
340,0,12,0,85.51477293,86.51526483,86.4981188,86.79827935,86.79827935,87.79840617,87.79840617,88.79848977,left,0.044274872,88.79848977,None,0.03,0,0,2979.768293,85.49809956,justin5,1,2020_Dec_11_1107,testDots,2020.2.5,60.59731733
341,0,13,0,88.88207588,89.88216436,89.8656686,90.16597931,90.16597931,91.16851442,91.16851442,92.16605946,right,0.140709742,92.16605946,None,0.06,180,0,2983.135568,88.86574994,justin5,1,2020_Dec_11_1107,testDots,2020.2.5,60.59731733
342,0,14,0,92.35014684,93.35029183,93.33270698,93.63274499,93.63274499,94.63281937,94.63281937,95.63307527,right,0.009648943,95.63307527,None,0.12,180,0,2986.601617,92.33266808,justin5,1,2020_Dec_11_1107,testDots,2020.2.5,60.59731733
343,0,15,0,95.68298589,96.68324558,96.66629974,96.96915999,96.96915999,97.98395168,97.9666618,98.96709517,right,1.851650941,98.96709517,None,0.48,0,1,2989.936552,95.66670199,justin5,1,2020_Dec_11_1107,testDots,2020.2.5,60.59731733
344,0,16,0,100.8520581,101.8674176,101.8340881,102.1346792,102.1346792,103.1347348,103.1347348,104.1340868,left,0.108672974,104.1340868,None,0.24,180,1,2995.109539,100.8387294,justin5,1,2020_Dec_11_1107,testDots,2020.2.5,60.59731733
345,0,17,0,104.2848848,105.2859372,105.2678148,105.5681204,105.5681204,106.5684338,106.5684338,107.5686086,left,1.93017864,107.5686086,None,0.06,180,1,2998.537392,104.2679196,justin5,1,2020_Dec_11_1107,testDots,2020.2.5,60.59731733
346,0,18,0,109.5360169,110.5397701,110.518909,110.8189467,110.8189467,111.8192143,111.8192143,112.8194006,left,0.127363034,112.8194006,None,0.03,180,1,3003.78947,109.5203092,justin5,1,2020_Dec_11_1107,testDots,2020.2.5,60.59731733
347,0,19,0,112.98636,113.9858133,113.969422,114.2696304,114.2696304,115.2698616,115.2698616,116.2767282,left,2.982004911,116.2767282,None,0.12,180,1,3007.241087,112.9724924,justin5,1,2020_Dec_11_1107,testDots,2020.2.5,60.59731733
348,0,20,0,119.3046651,120.3064574,120.2875915,120.5869155,120.5869155,121.587131,121.587131,122.5874555,right,0.071279786,122.5874555,None,0.06,180,0,3013.557482,119.287744,justin5,1,2020_Dec_11_1107,testDots,2020.2.5,60.59731733
349,0,21,0,122.7045549,123.7073532,123.6877172,123.9880341,123.9880341,124.9878413,124.9878413,125.9886916,right,0.070048588,125.9886916,None,0.12,0,1,3016.955987,122.6872937,justin5,1,2020_Dec_11_1107,testDots,2020.2.5,60.59731733
350,0,22,0,126.1047046,127.1047102,127.0879494,127.3897179,127.3897179,128.3883857,128.3883857,129.3890465,left,0.165723505,129.3890465,None,0.24,180,1,3020.357569,126.088017,justin5,1,2020_Dec_11_1107,testDots,2020.2.5,60.59731733
351,0,23,0,129.5886535,130.5886912,130.575285,130.888963,130.8721065,131.8722904,131.8722904,132.8725178,right,0.114256136,132.8725178,None,0.48,0,1,3023.841115,129.5719199,justin5,1,2020_Dec_11_1107,testDots,2020.2.5,60.59731733
352,0,24,0,133.0262237,134.0399534,134.00584,134.3060343,134.3060343,135.3070334,135.3070334,136.3097512,right,0.077012912,136.3097512,None,0.03,0,1,3027.281828,133.0088703,justin5,1,2020_Dec_11_1107,testDots,2020.2.5,60.59731733
353,0,25,0,136.4235664,137.4234481,137.4065122,137.7066122,137.7066122,138.7068644,138.7068644,139.706878,right,0.063887017,139.706878,None,0.03,0,1,3030.6762,136.4068955,justin5,1,2020_Dec_11_1107,testDots,2020.2.5,60.59731733
354,0,26,0,139.8075937,140.8071221,140.7904323,141.0902889,141.0902889,142.0908819,142.0908819,143.0909627,right,2.647794074,143.0909627,None,0.24,0,1,3034.059212,139.7903433,justin5,1,2020_Dec_11_1107,testDots,2020.2.5,60.59731733
355,0,27,0,145.7756417,146.7748475,146.7580298,147.0582483,147.0582483,148.0583269,148.0583269,149.0587806,left,0.263950735,149.0587806,None,0.12,180,1,3040.027374,145.7579863,justin5,1,2020_Dec_11_1107,testDots,2020.2.5,60.59731733
356,0,28,0,149.3590007,150.3586347,150.3418429,150.6418767,150.6418767,151.6423071,151.6423071,152.6425227,left,0.120234222,152.6425227,None,0.06,180,1,3043.61141,149.3421831,justin5,1,2020_Dec_11_1107,testDots,2020.2.5,60.59731733
357,0,29,0,152.8093936,153.8091527,153.7925123,154.092694,154.092694,155.092778,155.092778,156.0929566,left,0.045817182,156.0929566,None,0.48,180,1,3047.061804,152.7926688,justin5,1,2020_Dec_11_1107,testDots,2020.2.5,60.59731733
358,0,30,0,156.1787201,157.1934688,157.1605857,157.4603832,157.4603832,158.4611964,158.4611964,159.4629464,left,0.147840177,159.4629464,None,0.12,0,0,3050.428736,156.159546,justin5,1,2020_Dec_11_1107,testDots,2020.2.5,60.59731733
359,0,31,0,159.6601435,160.660461,160.6438633,160.9436317,160.9436317,161.9461466,161.9461466,162.9481335,right,0.286592005,162.9481335,None,0.06,0,1,3053.912892,159.6433972,justin5,1,2020_Dec_11_1107,testDots,2020.2.5,60.59731733
360,0,32,0,163.2777078,164.2774744,164.2607716,164.5608086,164.5608086,165.5653649,165.5653649,166.561724,left,0.265007621,166.561724,None,0.03,0,0,3057.530552,163.2609405,justin5,1,2020_Dec_11_1107,testDots,2020.2.5,60.59731733
361,0,33,0,166.8662338,167.8797408,167.8451298,168.1460393,168.1460393,169.1618018,169.144563,170.1451878,right,0.145586917,170.1451878,None,0.48,0,1,3061.114206,166.8450085,justin5,1,2020_Dec_11_1107,testDots,2020.2.5,60.59731733
362,0,34,0,170.3301401,171.3454599,171.3122311,171.612277,171.612277,172.6123496,172.6123496,173.612443,left,0.230377006,173.612443,None,0.24,180,1,3064.583233,170.3137307,justin5,1,2020_Dec_11_1107,testDots,2020.2.5,60.59731733
363,0,35,0,173.8793904,174.8802403,174.8627216,175.1627049,175.1627049,176.1631536,176.1631536,177.1629149,right,0.191871516,177.1629149,None,0.03,180,0,3068.131298,173.8625455,justin5,1,2020_Dec_11_1107,testDots,2020.2.5,60.59731733
364,0,36,0,177.3965254,178.3978099,178.3799559,178.6799662,178.6799662,179.6800963,179.6800963,180.6806545,right,0.106078495,180.6806545,None,0.12,0,1,3071.649959,177.3802112,justin5,1,2020_Dec_11_1107,testDots,2020.2.5,60.59731733
365,0,37,0,180.8302566,181.830472,181.8160614,182.1305764,182.1163343,183.1306186,183.1142614,184.1143265,left,0.128461632,184.1143265,None,0.48,180,1,3075.08232,180.8135297,justin5,1,2020_Dec_11_1107,testDots,2020.2.5,60.59731733
366,0,38,0,184.2807926,185.2812528,185.2641293,185.5680845,185.5680845,186.5812086,186.5645587,187.5648029,right,0.062009088,187.5648029,None,0.24,0,1,3078.534081,184.2645221,justin5,1,2020_Dec_11_1107,testDots,2020.2.5,60.59731733
367,0,39,0,187.6654852,188.6647661,188.6484915,188.9480575,188.9480575,189.9483667,189.9483667,190.9486334,right,0.230144252,190.9486334,None,0.06,180,0,3081.918205,187.6488265,justin5,1,2020_Dec_11_1107,testDots,2020.2.5,60.59731733
368,0,40,0,191.2160846,192.21539,192.1987898,192.4989491,192.4989491,193.4992203,193.4992203,194.499939,right,1.062817426,194.499939,None,0.48,0,1,3085.469173,191.1997314,justin5,1,2020_Dec_11_1107,testDots,2020.2.5,60.59731733
369,0,41,0,195.5997398,196.5993013,196.5827872,196.8830156,196.8830156,197.883184,197.883184,198.8843246,right,0.286418896,198.8843246,None,0.24,180,0,3089.853122,195.5841997,justin5,1,2020_Dec_11_1107,testDots,2020.2.5,60.59731733
370,0,42,0,199.2171223,200.2172457,200.2006659,200.5001101,200.5001101,201.5013768,201.5013768,202.5005281,right,0.182221549,202.5005281,None,0.12,0,1,3093.470714,199.2015884,justin5,1,2020_Dec_11_1107,testDots,2020.2.5,60.59731733
371,0,43,0,202.7174334,203.717397,203.7006532,204.0014428,204.0014428,205.0007845,205.0007845,206.0012014,right,0.113577473,206.0012014,None,0.06,0,1,3096.969974,202.7003665,justin5,1,2020_Dec_11_1107,testDots,2020.2.5,60.59731733
372,0,44,0,206.1510057,207.1526408,207.1348749,207.4349985,207.4349985,208.4346616,208.4346616,209.4350351,left,0.191683065,209.4350351,None,0.03,180,1,3100.403296,206.1347015,justin5,1,2020_Dec_11_1107,testDots,2020.2.5,60.59731733
373,0,45,0,209.6683728,210.6695477,210.6531706,210.9528149,210.9528149,211.9519795,211.9519795,212.951975,right,0.130791552,212.951975,None,0.24,0,1,3103.922316,209.6519632,justin5,1,2020_Dec_11_1107,testDots,2020.2.5,60.59731733
374,0,46,0,213.1190016,214.1212691,214.1022815,214.4030572,214.4030572,215.4029055,215.4029055,216.4027286,left,0.072009347,216.4027286,None,0.48,180,1,3107.372197,213.102676,justin5,1,2020_Dec_11_1107,testDots,2020.2.5,60.59731733
375,0,47,0,216.5195921,217.5197037,217.5054493,217.8194242,217.8043925,218.8196374,218.8030447,219.8036401,left,0.031079234,219.8036401,None,0.12,180,1,3110.772496,216.5028833,justin5,1,2020_Dec_11_1107,testDots,2020.2.5,60.59731733
376,0,48,0,219.8701409,220.8701511,220.8572587,221.1702372,221.1534593,222.153872,222.153872,223.1538757,right,1.816812447,223.1538757,None,0.03,180,0,3114.123018,219.8532749,justin5,1,2020_Dec_11_1107,testDots,2020.2.5,60.59731733
377,0,49,0,225.020857,226.021087,226.0043238,226.3044616,226.3044616,227.3046631,227.3046631,228.304829,left,0.04987039,228.304829,None,0.06,0,0,3119.273482,225.0047869,justin5,1,2020_Dec_11_1107,testDots,2020.2.5,60.59731733
378,0,50,0,228.4045898,229.4055223,229.3884582,229.6880861,229.6880861,230.6884881,230.6884881,231.6889019,right,2.865899788,231.6889019,None,0.48,0,1,3122.656566,228.387957,justin5,1,2020_Dec_11_1107,testDots,2020.2.5,60.59731733
379,0,51,0,234.5892686,235.589199,235.5723559,235.8732019,235.8732019,236.8737653,236.8737653,237.8733574,right,0.225421171,237.8733574,None,0.12,0,1,3128.843923,234.5752759,justin5,1,2020_Dec_11_1107,testDots,2020.2.5,60.59731733
380,0,52,0,238.1398906,239.1398105,239.1244032,239.4399958,239.4236996,240.4241187,240.4241187,241.4236879,right,0.131050231,241.4236879,None,0.24,0,1,3132.392061,238.122968,justin5,1,2020_Dec_11_1107,testDots,2020.2.5,60.59731733
381,0,53,0,241.593317,242.6073245,242.5735828,242.873636,242.873636,243.8735799,243.8735799,244.8739804,right,0.064755565,244.8739804,None,0.06,180,0,3135.842141,241.5732591,justin5,1,2020_Dec_11_1107,testDots,2020.2.5,60.59731733
382,0,54,0,244.9741511,245.9745978,245.9601301,246.2743338,246.257721,247.2574295,247.2574295,248.2580049,right,0.000727239,248.2580049,None,0.03,180,0,3139.226685,244.9579032,justin5,1,2020_Dec_11_1107,testDots,2020.2.5,60.59731733
383,0,55,0,248.3082744,249.308322,249.2916897,249.5913919,249.5913919,250.591702,250.591702,251.5917961,right,0.018955403,251.5917961,None,0.03,0,1,3142.563098,248.2939283,justin5,1,2020_Dec_11_1107,testDots,2020.2.5,60.59731733
384,0,56,0,251.6585338,252.6595562,252.6420813,252.9421177,252.9421177,253.9421597,253.9421597,254.9422158,right,0.22059358,254.9422158,None,0.48,0,1,3145.91215,251.6418578,justin5,1,2020_Dec_11_1107,testDots,2020.2.5,60.59731733
385,0,57,0,255.2091492,256.210604,256.1928667,256.4925457,256.4925457,257.4932993,257.4932993,258.4931635,right,0.221576084,258.4931635,None,0.06,0,1,3149.462205,255.1923523,justin5,1,2020_Dec_11_1107,testDots,2020.2.5,60.59731733
386,0,58,0,258.7596883,259.7612894,259.7434305,260.0430687,260.0430687,261.0433322,261.0433322,262.043983,right,0.166754017,262.043983,None,0.24,180,0,3153.01517,258.7428369,justin5,1,2020_Dec_11_1107,testDots,2020.2.5,60.59731733
387,0,59,0,262.2603566,263.2607223,263.2439812,263.5492296,263.5492296,264.5608185,264.5440587,265.544157,right,0.162615508,265.544157,None,0.12,0,1,3156.511857,262.2435147,justin5,1,2020_Dec_11_1107,testDots,2020.2.5,60.59731733
388,0,60,0,265.7442354,266.7444134,266.727514,267.0317474,267.0317474,268.0449862,268.0279344,269.0279091,right,0.102864532,269.0279091,None,0.12,0,1,3159.996354,265.7276096,justin5,1,2020_Dec_11_1107,testDots,2020.2.5,60.59731733
389,0,61,0,269.1782198,270.1780379,270.161564,270.4613795,270.4613795,271.4619929,271.4619929,272.4626513,right,0.020078384,272.4626513,None,0.48,0,1,3163.432871,269.1639347,justin5,1,2020_Dec_11_1107,testDots,2020.2.5,60.59731733
390,0,62,0,272.5304101,273.5453447,273.5124253,273.8119725,273.8119725,274.8121176,274.8121176,275.8122572,right,1.374503704,275.8122572,None,0.03,180,0,3166.785073,272.5156894,justin5,1,2020_Dec_11_1107,testDots,2020.2.5,60.59731733
391,0,63,0,277.2301749,278.2295826,278.2128894,278.5127325,278.5127325,279.5131493,279.5131493,280.513269,right,0.193461598,280.513269,None,0.06,180,0,3171.482323,277.2130662,justin5,1,2020_Dec_11_1107,testDots,2020.2.5,60.59731733
392,0,64,0,280.7466051,281.746699,281.7303126,282.0318827,282.0318827,283.0301123,283.0301123,284.0303331,left,0.636473889,284.0303331,None,0.24,180,1,3174.999076,280.7300421,justin5,1,2020_Dec_11_1107,testDots,2020.2.5,60.59731733
393,0,65,0,284.7139256,285.7141899,285.6973647,286.0008387,286.0008387,287.0144093,286.9971961,287.9980301,right,0.156716132,287.9980301,None,0.06,180,0,3178.966198,284.697708,justin5,1,2020_Dec_11_1107,testDots,2020.2.5,60.59731733
394,0,66,0,288.1978831,289.1980129,289.1854055,289.4981199,289.484119,290.4980557,290.4812888,291.4822929,right,0.104451429,291.4822929,None,0.24,0,1,3182.450871,288.182043,justin5,1,2020_Dec_11_1107,testDots,2020.2.5,60.59731733
395,0,67,0,291.6326542,292.6313828,292.6151135,292.9153624,292.9153624,293.9154221,293.9154221,294.915452,right,0.063315184,294.915452,None,0.03,180,0,3185.886333,291.6164226,justin5,1,2020_Dec_11_1107,testDots,2020.2.5,60.59731733
396,0,68,0,295.0161967,296.0197455,295.9990969,296.2991147,296.2991147,297.3019489,297.3019489,298.3011523,left,0.101606152,298.3011523,None,0.48,180,1,3189.270036,294.9992845,justin5,1,2020_Dec_11_1107,testDots,2020.2.5,60.59731733
397,0,69,0,298.4508513,299.4496159,299.4342687,299.7495818,299.7329497,300.7330798,300.7330798,301.7335994,right,0.045127356,301.7335994,None,0.12,0,1,3192.702158,298.4330949,justin5,1,2020_Dec_11_1107,testDots,2020.2.5,60.59731733
398,0,70,0,301.8185864,302.8335092,302.8001246,303.1004825,303.1004825,304.100216,304.100216,305.102921,left,0.107807964,305.102921,None,0.24,180,1,3196.073481,301.8020673,justin5,1,2020_Dec_11_1107,testDots,2020.2.5,60.59731733
399,0,71,0,305.2506192,306.2506889,306.2344948,306.534522,306.534522,307.5342485,307.5342485,308.5344734,left,0.116301653,308.5344734,None,0.12,0,0,3199.502909,305.2341908,justin5,1,2020_Dec_11_1107,testDots,2020.2.5,60.59731733
400,0,72,0,308.6850316,309.684593,309.6684043,309.9679355,309.9679355,310.9696163,310.9696163,311.9711462,left,0.143660213,311.9711462,None,0.48,0,0,3202.941364,308.6713062,justin5,1,2020_Dec_11_1107,testDots,2020.2.5,60.59731733
401,0,73,0,312.1524964,313.1516963,313.1350156,313.4355166,313.4355166,314.4353871,314.4353871,315.4353891,right,0.143370205,315.4353891,None,0.03,180,0,3206.404448,312.1353984,justin5,1,2020_Dec_11_1107,testDots,2020.2.5,60.59731733
402,0,74,0,315.6188951,316.6192212,316.602425,316.9024849,316.9024849,317.9033288,317.9033288,318.9023416,left,0.012425793,318.9023416,None,0.06,180,1,3209.874883,315.6066869,justin5,1,2020_Dec_11_1107,testDots,2020.2.5,60.59731733
403,0,75,0,318.9531249,319.9528421,319.9364624,320.2363862,320.2363862,321.2364986,321.2364986,322.2366669,left,0.110079639,322.2366669,None,0.12,180,1,3213.205435,318.9364279,justin5,1,2020_Dec_11_1107,testDots,2020.2.5,60.59731733
404,0,76,0,322.3904067,323.4033489,323.3700218,323.6702412,323.6702412,324.6725303,324.6725303,325.6702906,left,0.100460958,325.6702906,None,0.24,180,1,3216.638776,322.3700899,justin5,1,2020_Dec_11_1107,testDots,2020.2.5,60.59731733
405,0,77,0,325.8067222,326.8211584,326.7874494,327.0874067,327.0874067,328.091843,328.091843,329.0902955,left,0.072512208,329.0902955,None,0.06,0,0,3220.058046,325.7874412,justin5,1,2020_Dec_11_1107,testDots,2020.2.5,60.59731733
406,0,78,0,329.2046482,330.204799,330.1877679,330.4886531,330.4886531,331.488156,331.488156,332.4888863,left,0.0498704,332.4888863,None,0.48,180,1,3223.456739,329.1879101,justin5,1,2020_Dec_11_1107,testDots,2020.2.5,60.59731733
407,0,79,0,332.5887532,333.5887434,333.5718575,333.8719435,333.8719435,334.8720483,334.8720483,335.8722657,left,0.090478282,335.8722657,None,0.03,180,1,3226.840909,332.5715683,justin5,1,2020_Dec_11_1107,testDots,2020.2.5,60.59731733
408,0,80,0,336.0054573,337.0060616,336.9891181,337.290573,337.290573,338.3084435,338.2901275,339.2904522,left,0.032292997,339.2904522,None,0.03,0,0,3230.258688,335.9893996,justin5,1,2020_Dec_11_1107,testDots,2020.2.5,60.59731733
409,0,81,0,339.3726708,340.3730732,340.3566991,340.6563111,340.6563111,341.6589316,341.6589316,342.6565952,left,0.066172198,342.6565952,None,0.48,180,1,3233.625609,339.3565408,justin5,1,2020_Dec_11_1107,testDots,2020.2.5,60.59731733
410,0,82,0,342.7573016,343.7568818,343.7405244,344.0404929,344.0404929,345.0403175,345.0403175,346.0405067,right,0.082238516,346.0405067,None,0.06,0,1,3237.010994,342.7400464,justin5,1,2020_Dec_11_1107,testDots,2020.2.5,60.59731733
411,0,83,0,346.1573028,347.1583331,347.1406127,347.440904,347.440904,348.4411942,348.4411942,349.4411939,left,0.097595728,349.4411939,None,0.12,180,1,3240.411409,346.1412299,justin5,1,2020_Dec_11_1107,testDots,2020.2.5,60.59731733
412,0,84,0,349.5746813,350.5755301,350.5581419,350.8579818,350.8579818,351.8581179,351.8581179,352.8583856,right,0.072346577,352.8583856,None,0.24,0,1,3243.828158,349.5588459,justin5,1,2020_Dec_11_1107,testDots,2020.2.5,60.59731733
413,0,85,0,352.974913,353.9752878,353.957945,354.2625278,354.2625278,355.2752853,355.2586469,356.2589056,right,0.079867542,356.2589056,None,0.03,180,0,3247.227849,352.9585178,justin5,1,2020_Dec_11_1107,testDots,2020.2.5,60.59731733
414,0,86,0,356.3756741,357.3782044,357.3590953,357.6591693,357.6591693,358.6592079,358.6592079,359.6596309,left,0.07116376,359.6596309,None,0.24,180,1,3250.629587,356.359525,justin5,1,2020_Dec_11_1107,testDots,2020.2.5,60.59731733
415,0,87,0,359.7760181,360.7777106,360.7613687,361.0764992,361.0591683,362.0604958,362.0604958,363.060607,right,2.63812802,363.060607,None,0.12,0,1,3254.028222,359.7594692,justin5,1,2020_Dec_11_1107,testDots,2020.2.5,60.59731733
416,0,88,0,365.7437195,366.7441755,366.7271468,367.0283536,367.0283536,368.031129,368.031129,369.027497,left,0.103257064,369.027497,None,0.48,180,1,3259.996151,365.7270895,justin5,1,2020_Dec_11_1107,testDots,2020.2.5,60.59731733
417,0,89,0,369.1777432,370.1777192,370.1612082,370.461302,370.461302,371.4613721,371.4613721,372.4614827,right,1.821251545,372.4614827,None,0.06,0,1,3263.429704,369.1607472,justin5,1,2020_Dec_11_1107,testDots,2020.2.5,60.59731733