trials.thisRepN,trials.thisTrialN,trials.thisN,trials.thisIndex,fixation1.started,fixation1.stopped,dots_stimulus.started,dots_stimulus.stopped,fixation2.started,fixation2.stopped,smooth_pursuit.started,smooth_pursuit.stopped,response.keys,response.rt,response.started,response.stopped,coh,dir,correct,pupil_timestamp,psychopy_timestamp,participant,session,date,expName,psychopyVersion,frameRate
0,0,0,0,16.6548174,17.669349,17.61976562,17.934815,17.91985118,18.92287626,18.92287626,19.91745209,right,1.160977378,19.91745209,None,0.2,0,1,108624.1453,16.63269902,angel1,1,2020_Dec_03_1050,testDots,2020.2.5,60.23046416
1,0,1,0,21.11726619,22.11950319,22.10169859,22.40098275,22.40098275,23.40102617,23.40102617,24.40189664,left,1.004499661,24.40189664,None,0.15,0,0,108628.6186,21.10217284,angel1,1,2020_Dec_03_1050,testDots,2020.2.5,60.23046416
2,0,2,0,25.45878065,26.46999329,26.43576059,26.73981162,26.72011794,27.72175165,27.72175165,28.72392293,right,1.266506359,28.72392293,None,0.05,180,0,108632.961,25.44115752,angel1,1,2020_Dec_03_1050,testDots,2020.2.5,60.23046416
3,0,3,0,30.03597829,31.03762362,31.02038293,31.32420135,31.32420135,32.33625936,32.31962844,33.31955015,left,1.390868647,33.31955015,None,0.1,180,1,108637.5338,30.01897029,angel1,1,2020_Dec_03_1050,testDots,2020.2.5,60.23046416
4,0,4,0,34.75510029,35.7547036,35.73920727,36.03672727,36.03672727,37.03850038,37.03850038,38.03921799,right,1.775154563,38.03921799,None,0.5,180,0,108642.257,34.74130278,angel1,1,2020_Dec_03_1050,testDots,2020.2.5,60.23046416
5,0,5,0,39.85381165,40.85737786,40.84234702,41.15568361,41.14191687,42.15940577,42.13949558,43.13889636,left,1.123544793,43.13889636,None,0.15,0,0,108647.3576,39.84262793,angel1,1,2020_Dec_03_1050,testDots,2020.2.5,60.23046416
6,0,6,0,44.30472258,45.30815388,45.28809108,45.58819973,45.58819973,46.58952819,46.58952819,47.58997341,left,0.888485141,47.58997341,None,0.05,180,1,108651.8084,44.29273477,angel1,1,2020_Dec_03_1050,testDots,2020.2.5,60.23046416
7,0,7,0,48.52798592,49.53883642,49.50734111,49.80575579,49.80575579,50.82315762,50.82315762,51.81087235,right,0.73154185,51.81087235,None,0.2,0,1,108656.0269,48.50978162,angel1,1,2020_Dec_03_1050,testDots,2020.2.5,60.23046416
8,0,8,0,52.58956075,53.5919716,53.57672048,53.89089481,53.87791252,54.88216845,54.88216845,55.87411635,left,1.084329309,55.87411635,None,0.5,180,1,108660.0919,52.57422893,angel1,1,2020_Dec_03_1050,testDots,2020.2.5,60.23046416
9,0,9,0,57.00745948,58.01061726,57.98989172,58.2901301,58.2901301,59.29019709,59.29019709,60.29107242,left,0.467359289,60.29107242,None,0.1,180,1,108664.5117,56.99338587,angel1,1,2020_Dec_03_1050,testDots,2020.2.5,60.23046416
10,0,10,0,60.81078632,61.80870247,61.77401319,62.07434175,62.07434175,63.07792014,63.07792014,64.07551544,right,0.282882606,64.07551544,None,0.05,180,0,108668.3032,60.79221934,angel1,1,2020_Dec_03_1050,testDots,2020.2.5,60.23046416
11,0,11,0,64.40996494,65.42465334,65.39126941,65.69399676,65.69399676,66.69376638,66.69376638,67.69549192,left,1.038918125,67.69549192,None,0.1,0,0,108671.9155,64.41121409,angel1,1,2020_Dec_03_1050,testDots,2020.2.5,60.23046416
12,0,12,0,68.77775827,69.77779788,69.76510826,70.07607567,70.06004643,71.06058809,71.06058809,72.06025088,left,1.330192493,72.06025088,None,0.5,180,1,108676.2821,68.77563857,angel1,1,2020_Dec_03_1050,testDots,2020.2.5,60.23046416
13,0,13,0,73.42839157,74.42687827,74.41204644,74.71149369,74.71149369,75.71155395,75.71155395,76.71053045,right,0.815919853,76.71053045,None,0.2,180,0,108680.932,73.42723962,angel1,1,2020_Dec_03_1050,testDots,2020.2.5,60.23046416
14,0,14,0,77.58031678,78.59333334,78.56234139,78.88143496,78.86735529,79.86324481,79.86324481,80.86351546,left,0.774910265,80.86351546,None,0.15,180,1,108685.0748,77.56172797,angel1,1,2020_Dec_03_1050,testDots,2020.2.5,60.23046416
15,0,15,0,81.68175791,82.68238812,82.66739564,82.97886679,82.96562353,83.96352416,83.96352416,84.96230593,left,0.89214204,84.96230593,None,0.5,0,0,108689.1861,81.6793711,angel1,1,2020_Dec_03_1050,testDots,2020.2.5,60.23046416
16,0,16,0,85.89583205,86.91579398,86.87781508,87.178001,87.178001,88.17900945,88.17900945,89.17951501,left,0.986911172,89.17951501,None,0.1,180,1,108693.4017,85.89800893,angel1,1,2020_Dec_03_1050,testDots,2020.2.5,60.23046416
17,0,17,0,90.21195949,91.21467786,91.19509578,91.49721842,91.49721842,92.49545848,92.49545848,93.49674265,right,0.989731234,93.49674265,None,0.15,0,1,108697.7155,90.19634107,angel1,1,2020_Dec_03_1050,testDots,2020.2.5,60.23046416
18,0,18,0,94.53939856,95.54883666,95.51830539,95.83117666,95.81513051,96.83421558,96.81483018,97.81549397,right,0.870922401,97.81549397,None,0.2,180,0,108702.0386,94.5303855,angel1,1,2020_Dec_03_1050,testDots,2020.2.5,60.23046416
19,0,19,0,98.73040429,99.73432441,99.71985172,100.0306322,100.0174852,101.0303142,101.0154515,102.0135249,right,0.944887959,102.0135249,None,0.05,0,1,108706.2347,98.71687658,angel1,1,2020_Dec_03_1050,testDots,2020.2.5,60.23046416
20,0,20,0,103.002665,104.0165433,103.9978883,104.2973456,104.2825102,105.2811235,105.2811235,106.284404,right,0.721992638,106.284404,None,0.1,0,1,108710.5031,102.9843799,angel1,1,2020_Dec_03_1050,testDots,2020.2.5,60.23046416
21,0,21,0,107.0516037,108.0652982,108.0322402,108.3342042,108.3342042,109.3356382,109.3356382,110.3329735,left,1.02544402,110.3329735,None,0.05,180,1,108714.5482,107.0338083,angel1,1,2020_Dec_03_1050,testDots,2020.2.5,60.23046416
22,0,22,0,111.3988987,112.3988103,112.3837402,112.6900074,112.6900074,113.7011302,113.6822673,114.6852083,left,0.665191962,114.6852083,None,0.15,180,1,108718.9004,111.3841226,angel1,1,2020_Dec_03_1050,testDots,2020.2.5,60.23046416
23,0,23,0,115.3833754,116.3824089,116.3688758,116.6670038,116.6670038,117.6687767,117.6687767,118.668815,left,0.641630644,118.668815,None,0.5,0,0,108722.8848,115.3670354,angel1,1,2020_Dec_03_1050,testDots,2020.2.5,60.23046416
24,0,24,0,119.3537312,120.3693132,120.334156,120.6364202,120.6364202,121.6516644,121.637852,122.6332947,left,0.693127356,122.6332947,None,0.2,180,1,108726.8546,119.3370109,angel1,1,2020_Dec_03_1050,testDots,2020.2.5,60.23046416
25,0,25,0,123.3712186,124.3848529,124.3519952,124.6537404,124.6537404,125.6721417,125.6582935,126.6511484,right,0.611253131,126.6511484,None,0.1,180,0,108730.8655,123.3509625,angel1,1,2020_Dec_03_1050,testDots,2020.2.5,60.23046416
26,0,26,0,127.3014708,128.3027796,128.2864949,128.5853424,128.5853424,129.5888788,129.5888788,130.5878085,left,1.066634121,130.5878085,None,0.2,180,1,108734.8029,127.2879329,angel1,1,2020_Dec_03_1050,testDots,2020.2.5,60.23046416
27,0,27,0,131.6959342,132.7057524,132.6719591,132.9714083,132.9714083,133.9857209,133.9710368,134.9702346,right,0.852197047,134.9702346,None,0.05,180,0,108739.1926,131.6716639,angel1,1,2020_Dec_03_1050,testDots,2020.2.5,60.23046416
28,0,28,0,135.8537234,136.8696354,136.8360522,137.1373455,137.1373455,138.1364569,138.1364569,139.1383373,right,0.724101257,139.1383373,None,0.5,0,1,108743.3569,135.8397211,angel1,1,2020_Dec_03_1050,testDots,2020.2.5,60.23046416
29,0,29,0,139.9061324,140.9201052,140.8867719,141.1877521,141.1877521,142.1877812,142.1877812,143.1947621,left,1.891732205,143.1947621,None,0.15,180,1,108747.4094,139.8931223,angel1,1,2020_Dec_03_1050,testDots,2020.2.5,60.23046416
30,0,30,0,145.1234816,146.1400695,146.1044543,146.4052321,146.4052321,147.4071216,147.4071216,148.4070412,left,0.759374298,148.4070412,None,0.5,0,0,108752.6238,145.1091668,angel1,1,2020_Dec_03_1050,testDots,2020.2.5,60.23046416
31,0,31,0,149.2075334,150.2249759,150.189015,150.4913943,150.4913943,151.5074597,151.494093,152.4926379,right,1.177806056,152.4926379,None,0.2,180,0,108756.7053,149.1900265,angel1,1,2020_Dec_03_1050,testDots,2020.2.5,60.23046416
32,0,32,0,153.7058918,154.7089676,154.6892942,154.9926512,154.9926512,156.0077312,155.9915054,156.990464,left,1.49593684,156.990464,None,0.05,0,0,108761.211,153.6961225,angel1,1,2020_Dec_03_1050,testDots,2020.2.5,60.23046416
33,0,33,0,158.5283102,159.5431119,159.5231445,159.8245119,159.8245119,160.8234563,160.8078125,161.8126125,left,0.68182615,161.8126125,None,0.15,180,1,108766.0293,158.5105649,angel1,1,2020_Dec_03_1050,testDots,2020.2.5,60.23046416
34,0,34,0,162.5412043,163.5408991,163.5263339,163.8403974,163.8264354,164.8283647,164.8283647,165.8251412,right,0.829272677,165.8251412,None,0.1,180,0,108770.0413,162.5248361,angel1,1,2020_Dec_03_1050,testDots,2020.2.5,60.23046416
35,0,35,0,166.6917764,167.6919665,167.6774927,167.9744306,167.9744306,168.9745309,168.9745309,169.9770039,right,0.637416319,169.9770039,None,0.5,0,1,108774.1955,166.678082,angel1,1,2020_Dec_03_1050,testDots,2020.2.5,60.23046416
36,0,36,0,170.6628835,171.6655252,171.6463325,171.9585528,171.9585528,172.9599259,172.9449993,173.9453995,left,2.821007281,173.9453995,None,0.05,0,0,108778.1617,170.6458888,angel1,1,2020_Dec_03_1050,testDots,2020.2.5,60.23046416
37,0,37,0,176.8096075,177.8093483,177.7939683,178.0923922,178.0923922,179.0942446,179.0942446,180.0930235,right,0.897369668,180.0930235,None,0.15,0,1,108784.3088,176.794158,angel1,1,2020_Dec_03_1050,testDots,2020.2.5,60.23046416
38,0,38,0,181.0268828,182.0275122,182.0124135,182.3102464,182.3102464,183.3104842,183.3104842,184.3126813,right,0.629780158,184.3126813,None,0.1,180,0,108788.5255,181.0102353,angel1,1,2020_Dec_03_1050,testDots,2020.2.5,60.23046416
39,0,39,0,184.9776822,185.9777786,185.961011,186.2626102,186.2626102,187.2632462,187.2632462,188.2630866,left,0.143351754,188.2630866,None,0.2,180,1,108792.4796,184.9639824,angel1,1,2020_Dec_03_1050,testDots,2020.2.5,60.23046416
40,0,40,0,188.4489789,189.4641066,189.4303805,189.7316175,189.7316175,190.7510391,190.7343123,191.7322865,left,4.19414829,191.7322865,None,0.5,0,0,108795.9442,188.4280831,angel1,1,2020_Dec_03_1050,testDots,2020.2.5,60.23046416
41,0,41,0,195.9642027,196.9790662,196.9462744,197.2481467,197.2481467,198.2626807,198.2480736,199.2481454,left,1.262262168,199.2481454,None,0.1,0,0,108803.4617,195.9468606,angel1,1,2020_Dec_03_1050,testDots,2020.2.5,60.23046416
42,0,42,0,200.5539715,201.5665227,201.5323781,201.846658,201.8339525,202.8349346,202.8177788,203.8178698,right,0.068537472,203.8178698,None,0.15,0,1,108808.0547,200.534866,angel1,1,2020_Dec_03_1050,testDots,2020.2.5,60.23046416
43,0,43,0,203.9352737,204.9486972,204.9160662,205.2158651,205.1985011,206.2161557,206.2161557,207.2016787,left,0.404744859,207.2016787,None,0.2,0,0,108811.4356,203.9139923,angel1,1,2020_Dec_03_1050,testDots,2020.2.5,60.23046416
44,0,44,0,207.6558216,208.6700655,208.6479073,208.9477586,208.9477586,209.9498671,209.9498671,210.9512776,left,0.399163988,210.9512776,None,0.05,0,0,108815.156,207.6367341,angel1,1,2020_Dec_03_1050,testDots,2020.2.5,60.23046416
45,0,45,0,211.3838792,212.3984682,212.365512,212.6670784,212.6670784,213.6690486,213.6690486,214.6708858,right,1.183548284,214.6708858,None,0.05,180,0,108818.8846,211.3671656,angel1,1,2020_Dec_03_1050,testDots,2020.2.5,60.23046416
46,0,46,0,215.9024053,216.9172416,216.8842629,217.1838235,217.1838235,218.1851867,218.1851867,219.1857878,left,0.588696083,219.1857878,None,0.15,180,1,108823.4056,215.8901695,angel1,1,2020_Dec_03_1050,testDots,2020.2.5,60.23046416
47,0,47,0,219.8195944,220.8175099,220.8020134,221.1018042,221.1018042,222.1166044,222.1036115,223.103256,left,0.567161266,223.103256,None,0.1,180,1,108827.322,219.8051301,angel1,1,2020_Dec_03_1050,testDots,2020.2.5,60.23046416
48,0,48,0,223.7180475,224.7180298,224.6879946,225.0014312,224.988546,226.000962,225.988267,226.9855983,left,0.412862485,226.9855983,None,0.5,0,0,108831.2134,223.6932444,angel1,1,2020_Dec_03_1050,testDots,2020.2.5,60.23046416
49,0,49,0,227.436326,228.4375957,228.4196209,228.719951,228.719951,229.7192783,229.7192783,230.7185679,left,1.015864813,230.7185679,None,0.2,0,0,108834.935,227.4202505,angel1,1,2020_Dec_03_1050,testDots,2020.2.5,60.23046416
50,0,50,0,231.768205,232.7722965,232.758879,233.0703731,233.0555751,234.0710597,234.0519682,235.0531449,right,0.345314341,235.0531449,None,0.2,180,0,108839.2698,231.7542008,angel1,1,2020_Dec_03_1050,testDots,2020.2.5,60.23046416
51,0,51,0,235.437763,236.4521875,236.4198722,236.7211196,236.7211196,237.7246197,237.7246197,238.7244996,left,0.657958353,238.7244996,None,0.1,180,1,108842.9354,235.4207362,angel1,1,2020_Dec_03_1050,testDots,2020.2.5,60.23046416
52,0,52,0,239.4246297,240.4387615,240.4194164,240.7208971,240.7094642,241.7200251,241.7200251,242.7202758,left,1.382135933,242.7202758,None,0.5,180,1,108846.9233,239.4059946,angel1,1,2020_Dec_03_1050,testDots,2020.2.5,60.23046416
53,0,53,0,244.1371355,245.1372482,245.1235325,245.437806,245.4248392,246.4393974,246.4263977,247.4205472,right,0.55390999,247.4205472,None,0.05,180,0,108851.6381,244.1221629,angel1,1,2020_Dec_03_1050,testDots,2020.2.5,60.23046416
54,0,54,0,248.0210251,249.0223803,249.0093483,249.3211787,249.3084029,250.3226149,250.3111626,251.3066829,left,1.251774805,251.3066829,None,0.15,0,0,108855.5207,248.0041892,angel1,1,2020_Dec_03_1050,testDots,2020.2.5,60.23046416
55,0,55,0,252.6054733,253.6052452,253.5887872,253.8884687,253.8884687,254.8890588,254.8890588,255.8895005,left,0.164961037,255.8895005,None,0.1,0,0,108860.1059,252.5906821,angel1,1,2020_Dec_03_1050,testDots,2020.2.5,60.23046416
56,0,56,0,256.0889246,257.0920451,257.0747421,257.3914335,257.3723418,258.374365,258.374365,259.373167,right,1.121242081,259.373167,None,0.2,0,1,108863.5901,256.0747175,angel1,1,2020_Dec_03_1050,testDots,2020.2.5,60.23046416
57,0,57,0,260.5397395,261.5434368,261.5250346,261.823914,261.823914,262.8250016,262.8250016,263.8233961,right,1.503042094,263.8233961,None,0.5,0,1,108868.0423,260.5256212,angel1,1,2020_Dec_03_1050,testDots,2020.2.5,60.23046416
58,0,58,0,265.3744809,266.375577,266.3610939,266.6790977,266.6577318,267.6594637,267.6594637,268.6610939,left,1.049336862,268.6610939,None,0.15,0,0,108872.8719,265.3569966,angel1,1,2020_Dec_03_1050,testDots,2020.2.5,60.23046416
59,0,59,0,269.7581443,270.7590268,270.7411929,271.0414462,271.0414462,272.0433948,272.0433948,273.0438681,left,0.602548034,273.0438681,None,0.05,0,0,108877.2627,269.7470345,angel1,1,2020_Dec_03_1050,testDots,2020.2.5,60.23046416
60,0,60,0,273.6826026,274.7087201,274.6629778,274.959775,274.959775,275.9604007,275.9604007,276.9612177,left,0.421226875,276.9612177,None,0.15,0,0,108881.1844,273.6636697,angel1,1,2020_Dec_03_1050,testDots,2020.2.5,60.23046416
61,0,61,0,277.4271323,278.4456184,278.4092855,278.7121595,278.7121595,279.7150046,279.7150046,280.7124589,left,0.645966759,280.7124589,None,0.1,180,1,108884.927,277.4120983,angel1,1,2020_Dec_03_1050,testDots,2020.2.5,60.23046416
62,0,62,0,281.3932761,282.3949481,282.3803495,282.6957608,282.6765292,283.6766038,283.6766038,284.6805918,left,1.005851527,284.6805918,None,0.5,0,0,108888.8922,281.3761919,angel1,1,2020_Dec_03_1050,testDots,2020.2.5,60.23046416
63,0,63,0,285.7340351,286.7446772,286.7271048,287.0308043,287.0308043,288.0279449,288.013277,289.0119252,left,1.034503592,289.0119252,None,0.2,180,1,108893.2357,285.7194142,angel1,1,2020_Dec_03_1050,testDots,2020.2.5,60.23046416
64,0,64,0,290.0952994,291.0964013,291.0778641,291.3780331,291.3780331,292.3783307,292.3783307,293.3810783,left,0.473320298,293.3810783,None,0.05,0,0,108897.5971,290.0812457,angel1,1,2020_Dec_03_1050,testDots,2020.2.5,60.23046416
65,0,65,0,293.8952995,294.8963807,294.8832428,295.1973689,295.1823004,296.1813693,296.1813693,297.1809324,left,0.097475754,297.1809324,None,0.5,180,1,108901.397,293.881182,angel1,1,2020_Dec_03_1050,testDots,2020.2.5,60.23046416
66,0,66,0,297.3122259,298.3143012,298.2993669,298.6153326,298.5960471,299.596201,299.596201,300.5979634,left,0.98444613,300.5979634,None,0.15,180,1,108904.8134,297.2980841,angel1,1,2020_Dec_03_1050,testDots,2020.2.5,60.23046416
67,0,67,0,301.6301144,302.6312926,302.6132277,302.9190885,302.9190885,303.933627,303.9149053,304.9157917,left,0.01864067,304.9157917,None,0.2,180,1,108909.1305,301.6152796,angel1,1,2020_Dec_03_1050,testDots,2020.2.5,60.23046416
68,0,68,0,304.9803979,305.9819202,305.9638122,306.2639947,306.2639947,307.2655881,307.2655881,308.2638191,right,1.150580692,308.2638191,None,0.05,180,0,108912.4799,304.9648164,angel1,1,2020_Dec_03_1050,testDots,2020.2.5,60.23046416
69,0,69,0,309.4492322,310.44942,310.4321611,310.7365167,310.7365167,311.7483707,311.7310519,312.731791,left,0.794657959,312.731791,None,0.1,0,0,108916.9471,309.431016,angel1,1,2020_Dec_03_1050,testDots,2020.2.5,60.23046416
70,0,70,0,313.5655666,314.5651673,314.5510157,314.8662948,314.8545229,315.8685944,315.8486322,316.8495506,left,0.684882734,316.8495506,None,0.2,0,0,108921.0688,313.5515199,angel1,1,2020_Dec_03_1050,testDots,2020.2.5,60.23046416
71,0,71,0,317.5710933,318.5847841,318.5490672,318.8491775,318.8491775,319.8522459,319.8522459,320.8559001,left,1.054555961,320.8559001,None,0.5,180,1,108925.072,317.5517961,angel1,1,2020_Dec_03_1050,testDots,2020.2.5,60.23046416
72,0,72,0,321.9494838,322.9497311,322.9333,323.2363125,323.2363125,324.2501243,324.2355931,325.2349164,right,0.011506431,325.2349164,None,0.1,0,1,108929.4505,321.9354412,angel1,1,2020_Dec_03_1050,testDots,2020.2.5,60.23046416
73,0,73,0,325.2867898,326.3001647,326.2668615,326.5687118,326.5687118,327.5678075,327.5678075,328.5685115,left,1.413894594,328.5685115,None,0.05,0,0,108932.7851,325.2694364,angel1,1,2020_Dec_03_1050,testDots,2020.2.5,60.23046416
74,0,74,0,330.0176759,331.0202872,331.0008928,331.306576,331.306576,332.318847,332.3012312,333.3014868,right,0.44094919,333.3014868,None,0.15,180,0,108937.521,330.0058903,angel1,1,2020_Dec_03_1050,testDots,2020.2.5,60.23046416
75,0,75,0,333.7909687,334.8027097,334.7718759,335.0849662,335.0702575,336.0725255,336.0725255,337.0715565,left,0.462872123,337.0715565,None,0.1,0,0,108941.2919,333.7854053,angel1,1,2020_Dec_03_1050,testDots,2020.2.5,60.23046416
76,0,76,0,337.5869884,338.6027877,338.5536065,338.8554346,338.8554346,339.869159,339.8550049,340.8545598,right,0.951861034,340.8545598,None,0.05,0,1,108945.0799,337.555372,angel1,1,2020_Dec_03_1050,testDots,2020.2.5,60.23046416
77,0,77,0,341.8549144,342.8570196,342.8422238,343.1538243,343.1377774,344.155315,344.1361852,345.1367786,left,0.013724603,345.1367786,None,0.2,0,0,108949.3527,341.8368805,angel1,1,2020_Dec_03_1050,testDots,2020.2.5,60.23046416
78,0,78,0,345.1877201,346.1897571,346.1700999,346.4717547,346.4717547,347.4727498,347.4727498,348.4736675,right,0.500768862,348.4736675,None,0.5,0,1,108952.686,345.1712067,angel1,1,2020_Dec_03_1050,testDots,2020.2.5,60.23046416
79,0,79,0,349.0210605,350.0208439,350.0080312,350.3243136,350.3096549,351.3244678,351.3043685,352.3049779,right,1.069465355,352.3049779,None,0.15,0,1,108956.5197,349.0040611,angel1,1,2020_Dec_03_1050,testDots,2020.2.5,60.23046416
80,0,80,0,353.4248074,354.4408674,354.4057639,354.7237931,354.7237931,355.7417456,355.7220076,356.7093683,right,0.45707117,356.7093683,None,0.1,0,1,108960.9225,353.407307,angel1,1,2020_Dec_03_1050,testDots,2020.2.5,60.23046416
81,0,81,0,357.209326,358.2245485,358.1904638,358.4892831,358.4892831,359.4921536,359.4921536,360.4889637,left,0.645505866,360.4889637,None,0.5,180,1,108964.7045,357.1891655,angel1,1,2020_Dec_03_1050,testDots,2020.2.5,60.23046416
82,0,82,0,361.1727584,362.1734219,362.1574644,362.456423,362.456423,363.4568619,363.4568619,364.4570869,right,0.373316017,364.4570869,None,0.15,0,1,108968.6716,361.1564603,angel1,1,2020_Dec_03_1050,testDots,2020.2.5,60.23046416
83,0,83,0,364.873721,365.8758155,365.8598011,366.1734275,366.1611502,367.1749497,367.1633419,368.1568513,right,0.729577471,368.1568513,None,0.05,180,0,108972.3737,364.8569877,angel1,1,2020_Dec_03_1050,testDots,2020.2.5,60.23046416
84,0,84,0,368.9241622,369.9258776,369.9117902,370.2261378,370.2091749,371.2075104,371.2075104,372.2078114,right,0.558628211,372.2078114,None,0.2,0,1,108976.4266,368.911212,angel1,1,2020_Dec_03_1050,testDots,2020.2.5,60.23046416
85,0,85,0,372.808601,373.8099349,373.7912009,374.0914644,374.0914644,375.0912633,375.0912633,376.0918098,left,0.474592501,376.0918098,None,0.2,180,1,108980.3093,372.7918781,angel1,1,2020_Dec_03_1050,testDots,2020.2.5,60.23046416
86,0,86,0,376.6132751,377.6282737,377.6086859,377.909982,377.8944449,378.9114797,378.9114797,379.8929844,right,0.665412277,379.8929844,None,0.05,180,0,108984.1152,376.5977383,angel1,1,2020_Dec_03_1050,testDots,2020.2.5,60.23046416
87,0,87,0,380.5945641,381.5929023,381.5607119,381.8621809,381.8621809,382.8597462,382.8597462,383.8656342,right,0.372838482,383.8656342,None,0.15,0,1,108988.0965,380.5762158,angel1,1,2020_Dec_03_1050,testDots,2020.2.5,60.23046416
88,0,88,0,384.2764984,385.2763873,385.2613643,385.5628773,385.5628773,386.5791722,386.5617863,387.5603618,left,0.574090067,387.5603618,None,0.1,180,1,108991.7746,384.2600409,angel1,1,2020_Dec_03_1050,testDots,2020.2.5,60.23046416
89,0,89,0,388.1792615,389.1961194,389.1605849,389.4608909,389.4608909,390.4616634,390.4616634,391.463582,left,0.390851836,391.463582,None,0.5,0,0,108995.6774,388.1620065,angel1,1,2020_Dec_03_1050,testDots,2020.2.5,60.23046416
0,0,0,0,12.55613298,13.56607962,13.53256581,13.83612335,13.83612335,14.83423586,14.83423586,15.83331646,right,0.350435869,15.83331646,None,0.2,0,1,109021.4562,12.54911975,angel2,1,2020_Dec_03_1056,testDots,2020.2.5,None
1,0,1,0,16.21790555,17.21637734,17.20232474,17.51886315,17.50165956,18.52001909,18.50001663,19.50267403,right,0.369040213,19.50267403,None,0.1,180,0,109025.1195,16.20163871,angel2,1,2020_Dec_03_1056,testDots,2020.2.5,None
2,0,2,0,19.91937003,20.93390977,20.90067404,21.20302089,21.20302089,22.21756234,22.20280252,23.2059276,left,3.513781064,23.2059276,None,0.05,0,0,109028.8173,19.90342597,angel2,1,2020_Dec_03_1056,testDots,2020.2.5,None
3,0,3,0,26.76821813,27.77073835,27.75153741,28.05433352,28.05433352,29.06869063,29.05187214,30.05202667,right,0.0676794,30.05202667,None,0.5,180,0,109035.6673,26.7537166,angel2,1,2020_Dec_03_1056,testDots,2020.2.5,None
4,0,4,0,30.17375536,31.18717385,31.13945151,31.45502047,31.43613661,32.43653338,32.43653338,33.43898149,right,0.440736366,33.43898149,None,0.15,0,1,109039.0713,30.15308012,angel2,1,2020_Dec_03_1056,testDots,2020.2.5,None
5,0,5,0,33.92477137,34.93901109,34.90464826,35.20335713,35.20335713,36.20513606,36.20513606,37.20562569,right,3.106111241,37.20562569,None,0.2,0,1,109042.823,33.90678543,angel2,1,2020_Dec_03_1056,testDots,2020.2.5,None
6,0,6,0,40.37248858,41.38704475,41.35388548,41.65441878,41.65441878,42.65421467,42.65421467,43.65594156,left,0.399771064,43.65594156,None,0.5,180,1,109049.2604,40.3445057,angel2,1,2020_Dec_03_1056,testDots,2020.2.5,None
7,0,7,0,44.08948107,45.09089215,45.07304348,45.3709984,45.3709984,46.37167748,46.37167748,47.37195224,left,2.923776361,47.37195224,None,0.15,180,1,109052.988,44.07272596,angel2,1,2020_Dec_03_1056,testDots,2020.2.5,None
8,0,8,0,50.3434311,51.35851378,51.32248515,51.62264246,51.60585592,52.60618219,52.60618219,53.60780249,left,0.471932978,53.60780249,None,0.1,0,0,109059.2438,50.32487752,angel2,1,2020_Dec_03_1056,testDots,2020.2.5,None
9,0,9,0,54.12262704,55.12296307,55.11001383,55.42298257,55.40977351,56.42328428,56.4061283,57.40664752,right,0.233089489,57.40664752,None,0.05,180,0,109063.0207,54.10682768,angel2,1,2020_Dec_03_1056,testDots,2020.2.5,None
10,0,10,0,57.68982857,58.69258339,58.67540504,58.97340832,58.97340832,59.97579682,59.97579682,60.97669614,left,4.495100971,60.97669614,None,0.5,180,1,109066.5909,57.67654571,angel2,1,2020_Dec_03_1056,testDots,2020.2.5,None
11,0,11,0,65.5083181,66.50797208,66.49528302,66.80831072,66.79332439,67.79307589,67.79307589,68.79372147,right,0.44604005,68.79372147,None,0.1,0,1,109074.4069,65.49317913,angel2,1,2020_Dec_03_1056,testDots,2020.2.5,None
12,0,12,0,69.29315619,70.29775897,70.26403167,70.5775736,70.56300522,71.57540414,71.56171818,72.562955,right,0.316737747,72.562955,None,0.05,0,1,109078.1881,69.26890754,angel2,1,2020_Dec_03_1056,testDots,2020.2.5,None
13,0,13,0,72.93098989,73.94345117,73.9261339,74.22577072,74.22577072,75.22620082,75.22620082,76.22621711,right,0.205544666,76.22621711,None,0.2,180,0,109081.8317,72.91350156,angel2,1,2020_Dec_03_1056,testDots,2020.2.5,None
14,0,14,0,76.48170476,77.49559402,77.45971041,77.76146485,77.76146485,78.7645785,78.7645785,79.76853947,left,1.839214922,79.76853947,None,0.15,180,1,109085.375,76.46166586,angel2,1,2020_Dec_03_1056,testDots,2020.2.5,None
15,0,15,0,81.64612782,82.64785491,82.62859337,82.92807972,82.92807972,83.92777614,83.92777614,84.93018409,right,0.405521653,84.93018409,None,0.15,180,0,109090.543,81.62928444,angel2,1,2020_Dec_03_1056,testDots,2020.2.5,None
16,0,16,0,85.37928631,86.38166795,86.36258673,86.66169466,86.66169466,87.66273748,87.66273748,88.66342672,left,0.832296071,88.66342672,None,0.05,180,1,109094.2778,85.36223058,angel2,1,2020_Dec_03_1056,testDots,2020.2.5,None
17,0,17,0,89.52857883,90.53050642,90.51332006,90.82891222,90.81186201,91.81394108,91.81394108,92.81426572,left,0.521426465,92.81426572,None,0.1,0,0,109098.4288,89.51492969,angel2,1,2020_Dec_03_1056,testDots,2020.2.5,None
18,0,18,0,93.38188035,94.39647396,94.36297855,94.66243117,94.66243117,95.66508072,95.66508072,96.66445609,right,0.559275048,96.66445609,None,0.2,0,1,109102.2798,93.36317741,angel2,1,2020_Dec_03_1056,testDots,2020.2.5,None
19,0,19,0,97.27029991,98.28318546,98.24841195,98.55005503,98.55005503,99.56338199,99.54832496,100.5494998,left,0.35423995,100.5494998,None,0.5,180,1,109106.1635,97.24784687,angel2,1,2020_Dec_03_1056,testDots,2020.2.5,None
20,0,20,0,100.9472443,101.9510717,101.9318528,102.2306393,102.2306393,103.2363006,103.2363006,104.2317064,left,0.448076111,104.2317064,None,0.5,180,1,109109.8467,100.9334871,angel2,1,2020_Dec_03_1056,testDots,2020.2.5,None
21,0,21,0,104.7144807,105.7162865,105.6990499,106.0017989,106.0017989,107.0173373,106.9976398,107.9984107,right,0.041382415,107.9984107,None,0.15,180,0,109113.6128,104.6996767,angel2,1,2020_Dec_03_1056,testDots,2020.2.5,None
22,0,22,0,108.0838353,109.0991375,109.0650628,109.3671289,109.3671289,110.3842614,110.3674716,111.367296,left,0.320423007,111.367296,None,0.1,0,0,109116.9841,108.0677103,angel2,1,2020_Dec_03_1056,testDots,2020.2.5,None
23,0,23,0,111.7349151,112.7327314,112.7179524,113.0322212,113.0173083,114.0189996,114.0189996,115.0208656,right,0.28284958,115.0208656,None,0.2,0,1,109120.6344,111.7199547,angel2,1,2020_Dec_03_1056,testDots,2020.2.5,None
24,0,24,0,115.352633,116.3526253,116.3380905,116.6493694,116.6344403,117.6358637,117.6358637,118.6326739,left,0.351054629,118.6326739,None,0.05,180,1,109124.2483,115.3333844,angel2,1,2020_Dec_03_1056,testDots,2020.2.5,None
25,0,25,0,119.0166774,120.0187058,119.9997542,120.3231003,120.3012391,121.3001305,121.3001305,122.3077263,left,0.26799126,122.3077263,None,0.15,180,1,109127.9162,119.002076,angel2,1,2020_Dec_03_1056,testDots,2020.2.5,None
26,0,26,0,122.6176151,123.6173196,123.6042571,123.9180383,123.902861,124.9183301,124.9035059,125.9011014,right,0.46660085,125.9011014,None,0.2,0,1,109131.5139,122.6006352,angel2,1,2020_Dec_03_1056,testDots,2020.2.5,None
27,0,27,0,126.4179445,127.4180022,127.402239,127.7031465,127.7031465,128.7226011,128.7039543,129.7034824,right,0.464280804,129.7034824,None,0.5,0,1,109135.3197,126.4060059,angel2,1,2020_Dec_03_1056,testDots,2020.2.5,None
28,0,28,0,130.2088208,131.2184618,131.1849985,131.4857454,131.4857454,132.4881156,132.4881156,133.4712192,left,1.872509437,133.4712192,None,0.1,180,1,109139.1069,130.1878588,angel2,1,2020_Dec_03_1056,testDots,2020.2.5,None
29,0,29,0,135.3860998,136.3864288,136.3719515,136.6878229,136.6731746,137.6881755,137.6711565,138.669469,right,0.586260387,138.669469,None,0.05,180,0,109144.2887,135.3731267,angel2,1,2020_Dec_03_1056,testDots,2020.2.5,None
30,0,30,0,139.2910819,140.3047957,140.270757,140.5705501,140.5705501,141.5705419,141.5705419,142.5705754,right,0.405161685,142.5705754,None,0.1,0,1,109148.1914,139.2750862,angel2,1,2020_Dec_03_1056,testDots,2020.2.5,None
31,0,31,0,143.0205444,144.0227924,144.0052196,144.3074357,144.3074357,145.30681,145.30681,146.3043533,right,2.199450632,146.3043533,None,0.2,0,1,109151.9191,143.004311,angel2,1,2020_Dec_03_1056,testDots,2020.2.5,None
32,0,32,0,148.5381813,149.5398628,149.5212031,149.8214308,149.8214308,150.8221656,150.8221656,151.8252957,right,3.558465455,151.8252957,None,0.05,0,1,109157.4378,148.5237102,angel2,1,2020_Dec_03_1056,testDots,2020.2.5,None
33,0,33,0,155.4231441,156.4258654,156.4111967,156.7229059,156.7097821,157.7106299,157.7106299,158.7118076,right,3.031913454,158.7118076,None,0.15,180,0,109164.3227,155.4062632,angel2,1,2020_Dec_03_1056,testDots,2020.2.5,None
34,0,34,0,161.7917388,162.7917757,162.7763598,163.0908688,163.0778562,164.0908474,164.0784586,165.0741613,left,0.237587828,165.0741613,None,0.5,180,1,109170.6871,161.7735753,angel2,1,2020_Dec_03_1056,testDots,2020.2.5,None
35,0,35,0,165.3605166,166.3761933,166.3409612,166.6434278,166.6434278,167.6427917,167.6427917,168.6434333,right,0.404304636,168.6434333,None,0.5,0,1,109174.2613,165.3468794,angel2,1,2020_Dec_03_1056,testDots,2020.2.5,None
36,0,36,0,169.092635,170.1086182,170.0836798,170.39682,170.377974,171.3785327,171.3785327,172.3781865,right,0.677574247,172.3781865,None,0.1,180,0,109177.9895,169.0758514,angel2,1,2020_Dec_03_1056,testDots,2020.2.5,None
37,0,37,0,173.1136058,174.1138578,174.0982453,174.4120905,174.3949852,175.4100439,175.3848833,176.3923895,left,0.879386027,176.3923895,None,0.05,0,0,109182.0121,173.0924532,angel2,1,2020_Dec_03_1056,testDots,2020.2.5,None
38,0,38,0,177.3179578,178.3292902,178.2967809,178.609295,178.5959415,179.6106306,179.5956271,180.6002034,right,0.511530987,180.6002034,None,0.2,0,1,109186.2164,177.2945583,angel2,1,2020_Dec_03_1056,testDots,2020.2.5,None
39,0,39,0,181.1449249,182.1603961,182.1271667,182.427184,182.427184,183.4310321,183.4310321,184.4309256,left,0.73679689,184.4309256,None,0.15,180,1,109190.0458,181.1288837,angel2,1,2020_Dec_03_1056,testDots,2020.2.5,None
40,0,40,0,185.211308,186.2151668,186.1997486,186.5110776,186.4961654,187.4949249,187.4949249,188.4963651,left,0.823395698,188.4963651,None,0.2,180,1,109194.1111,185.1968182,angel2,1,2020_Dec_03_1056,testDots,2020.2.5,None
41,0,41,0,189.3690697,190.3780561,190.3285963,190.6311974,190.6503035,191.6643861,191.6467315,192.6295882,left,0.530122413,192.6295882,None,0.05,180,1,109198.2644,189.3454682,angel2,1,2020_Dec_03_1056,testDots,2020.2.5,None
42,0,42,0,193.2148973,194.215102,194.1979433,194.5181563,194.4960368,195.4956414,195.4956414,196.4858113,left,0.553988609,196.4858113,None,0.5,180,1,109202.1064,193.1949568,angel2,1,2020_Dec_03_1056,testDots,2020.2.5,None
43,0,43,0,197.0792336,198.0809649,198.0633443,198.3636966,198.3636966,199.3677728,199.3677728,200.3635569,right,0.588185412,200.3635569,None,0.15,180,0,109205.9822,197.0677792,angel2,1,2020_Dec_03_1056,testDots,2020.2.5,None
44,0,44,0,200.9971216,201.9967091,201.9833809,202.2841072,202.2841072,203.2852579,203.2852579,204.2826268,left,0.301086259,204.2826268,None,0.1,0,0,109209.8937,200.9799929,angel2,1,2020_Dec_03_1056,testDots,2020.2.5,None
45,0,45,0,204.6320888,205.6337267,205.615735,205.9171041,205.9171041,206.9310066,206.9166387,207.9145363,left,0.325177479,207.9145363,None,0.5,180,1,109213.5309,204.6170239,angel2,1,2020_Dec_03_1056,testDots,2020.2.5,None
46,0,46,0,208.2847111,209.2845101,209.2674078,209.56659,209.56659,210.5843932,210.5843932,211.581509,right,0.386224255,211.581509,None,0.1,180,0,109217.1859,208.2680774,angel2,1,2020_Dec_03_1056,testDots,2020.2.5,None
47,0,47,0,212.0021502,213.0170529,212.9838572,213.2987028,213.283726,214.2858701,214.2858701,215.287045,left,0.936684,215.287045,None,0.05,180,1,109220.9023,211.9856361,angel2,1,2020_Dec_03_1056,testDots,2020.2.5,None
48,0,48,0,216.2742909,217.2826421,217.2489398,217.5491092,217.5379059,218.5496541,218.5496541,219.5503983,left,0.561345286,219.5503983,None,0.15,180,1,109225.1695,216.2496411,angel2,1,2020_Dec_03_1056,testDots,2020.2.5,None
49,0,49,0,220.1532166,221.1541309,221.1363811,221.4335154,221.4335154,222.4351532,222.4351532,223.4366436,left,0.33108949,223.4366436,None,0.2,180,1,109229.055,220.1401744,angel2,1,2020_Dec_03_1056,testDots,2020.2.5,None
50,0,50,0,223.8022057,224.81729,224.7841042,225.0838096,225.0838096,226.0846357,226.0846357,227.0843357,right,0.491402676,227.0843357,None,0.05,180,0,109232.7005,223.7867468,angel2,1,2020_Dec_03_1056,testDots,2020.2.5,None
51,0,51,0,227.61785,228.6208994,228.6011052,228.9025855,228.9025855,229.9029739,229.9029739,230.9021014,right,0.305611231,230.9021014,None,0.2,0,1,109236.5182,227.6034735,angel2,1,2020_Dec_03_1056,testDots,2020.2.5,None
52,0,52,0,231.2554705,232.2535009,232.2385279,232.5374295,232.5374295,233.5353063,233.5353063,234.536181,left,1.00758129,234.536181,None,0.5,180,1,109240.1525,231.237875,angel2,1,2020_Dec_03_1056,testDots,2020.2.5,None
53,0,53,0,235.5916242,236.6028877,236.571262,236.8857341,236.8857341,237.8860025,237.8860025,238.8873796,left,0.41631954,238.8873796,None,0.1,180,1,109244.492,235.5756729,angel2,1,2020_Dec_03_1056,testDots,2020.2.5,None
54,0,54,0,239.3573378,240.3703109,240.3369611,240.6384595,240.6384595,241.6375673,241.6375673,242.6388899,left,0.472829813,242.6388899,None,0.15,180,1,109248.2584,239.3442368,angel2,1,2020_Dec_03_1056,testDots,2020.2.5,None
55,0,55,0,243.1553289,244.1544012,244.1387771,244.4406763,244.4406763,245.4391779,245.4391779,246.438803,left,2.384937595,246.438803,None,0.5,0,0,109252.0507,243.1364155,angel2,1,2020_Dec_03_1056,testDots,2020.2.5,None
56,0,56,0,248.8708905,249.8732245,249.8544756,250.1545587,250.1545587,251.1547871,251.1547871,252.1559177,right,0.45976854,252.1559177,None,0.15,0,1,109257.7706,248.8565744,angel2,1,2020_Dec_03_1056,testDots,2020.2.5,None
57,0,57,0,252.6550651,253.6583274,253.6404103,253.9386576,253.9386576,254.9410717,254.9410717,255.9392573,left,0.348491272,255.9392573,None,0.2,180,1,109261.5545,252.6406477,angel2,1,2020_Dec_03_1056,testDots,2020.2.5,None
58,0,58,0,256.3406243,257.3423593,257.3114445,257.6225484,257.6092276,258.6126631,258.6126631,259.6059149,right,0.50580904,259.6059149,None,0.05,180,0,109265.2337,256.3136898,angel2,1,2020_Dec_03_1056,testDots,2020.2.5,None
59,0,59,0,260.1598803,261.1740771,261.1396877,261.4417122,261.4417122,262.4566554,262.4432004,263.4444415,right,0.491340221,263.4444415,None,0.1,180,0,109269.0596,260.1419062,angel2,1,2020_Dec_03_1056,testDots,2020.2.5,None
60,0,60,0,263.9738142,264.9732729,264.9569017,265.2624357,265.2624357,266.2741884,266.2609912,267.2743858,left,0.661355944,267.2743858,None,0.5,0,0,109272.8738,263.9578541,angel2,1,2020_Dec_03_1056,testDots,2020.2.5,None
61,0,61,0,267.9745988,268.9824117,268.9621868,269.2799801,269.2577622,270.2750326,270.2750326,271.2604937,right,0.827290176,271.2604937,None,0.05,0,1,109276.8743,267.9596521,angel2,1,2020_Dec_03_1056,testDots,2020.2.5,None
62,0,62,0,272.1334399,273.1444568,273.1132613,273.4272331,273.4116971,274.4090792,274.4090792,275.4128447,left,0.250932904,275.4128447,None,0.1,0,0,109281.0304,272.110477,angel2,1,2020_Dec_03_1056,testDots,2020.2.5,None
63,0,63,0,275.7096315,276.7104154,276.6924843,276.9939188,276.9939188,277.9927548,277.9927548,278.9929863,left,0.782736316,278.9929863,None,0.15,0,0,109284.6101,275.6961805,angel2,1,2020_Dec_03_1056,testDots,2020.2.5,None
64,0,64,0,279.8111823,280.8100497,280.7962836,281.1095068,281.0966618,282.1106728,282.0935092,283.0949496,left,0.728815192,283.0949496,None,0.2,0,0,109288.7071,279.7925178,angel2,1,2020_Dec_03_1056,testDots,2020.2.5,None
65,0,65,0,283.8607933,284.8610669,284.8433932,285.1435185,285.1435185,286.1442378,286.1442378,287.1445596,left,0.415171036,287.1445596,None,0.5,180,1,109292.7589,283.8436941,angel2,1,2020_Dec_03_1056,testDots,2020.2.5,None
66,0,66,0,287.5969462,288.6115935,288.5784741,288.8786725,288.8786725,289.8943021,289.8806714,290.877698,left,0.36210098,290.877698,None,0.2,0,0,109296.4949,287.5797793,angel2,1,2020_Dec_03_1056,testDots,2020.2.5,None
67,0,67,0,291.2854575,292.3006705,292.265086,292.5782523,292.5643496,293.5786722,293.5644298,294.5656375,right,0.386085453,294.5656375,None,0.05,0,1,109300.1793,291.2613165,angel2,1,2020_Dec_03_1056,testDots,2020.2.5,None
68,0,68,0,294.9950119,295.9958244,295.9809404,296.2836017,296.2836017,297.2980551,297.2787166,298.2803979,right,0.37534381,298.2803979,None,0.1,180,0,109303.8928,294.9783386,angel2,1,2020_Dec_03_1056,testDots,2020.2.5,None
69,0,69,0,298.6959755,299.6993878,299.6792782,299.9812459,299.9812459,300.9804474,300.9804474,301.9820581,right,1.081690283,301.9820581,None,0.15,0,1,109307.5968,298.6823379,angel2,1,2020_Dec_03_1056,testDots,2020.2.5,None
70,0,70,0,303.1212737,304.1301962,304.0966903,304.3999518,304.3999518,305.4134136,305.4001397,306.401382,left,0.566332744,306.401382,None,0.15,180,1,109312.0194,303.1005911,angel2,1,2020_Dec_03_1056,testDots,2020.2.5,None
71,0,71,0,307.0137977,308.016448,307.997063,308.2986751,308.2986751,309.2979421,309.2979421,310.3003024,right,0.339435825,310.3003024,None,0.2,0,1,109315.9123,306.9984386,angel2,1,2020_Dec_03_1056,testDots,2020.2.5,None
72,0,72,0,310.6842962,311.6834087,311.6671817,311.9818917,311.9653898,312.9685618,312.9685618,313.9644936,left,0.667238617,313.9644936,None,0.5,180,1,109319.5813,310.6677984,angel2,1,2020_Dec_03_1056,testDots,2020.2.5,None
73,0,73,0,314.6819561,315.6828826,315.6653837,315.9655328,315.9655328,316.9653497,316.9653497,317.9679797,right,0.287739393,317.9679797,None,0.05,0,1,109323.5822,314.6677452,angel2,1,2020_Dec_03_1056,testDots,2020.2.5,None
74,0,74,0,318.2999319,319.302011,319.2860312,319.5824592,319.5824592,320.5841948,320.5841948,321.5834781,left,0.576207953,321.5834781,None,0.1,180,1,109327.2039,318.2879202,angel2,1,2020_Dec_03_1056,testDots,2020.2.5,None
75,0,75,0,322.2003326,323.20021,323.1887718,323.5006939,323.4878258,324.5019658,324.4830668,325.4863044,right,0.721418336,325.4863044,None,0.1,0,1,109331.0988,322.1835642,angel2,1,2020_Dec_03_1056,testDots,2020.2.5,None
76,0,76,0,326.2519589,327.2691251,327.2336782,327.5351448,327.5351448,328.5510529,328.5510529,329.5343039,left,0.777429202,329.5343039,None,0.15,180,1,109335.1507,326.2352531,angel2,1,2020_Dec_03_1056,testDots,2020.2.5,None
77,0,77,0,330.3515883,331.3511764,331.3364258,331.6509277,331.6371425,332.6518765,332.6367893,333.6348373,left,0.412905489,333.6348373,None,0.05,180,1,109339.2529,330.3361127,angel2,1,2020_Dec_03_1056,testDots,2020.2.5,None
78,0,78,0,334.0857306,335.0878665,335.0685077,335.3686635,335.3686635,336.3854842,336.3854842,337.3587289,right,0.625061141,337.3587289,None,0.5,0,1,109342.9831,334.0688502,angel2,1,2020_Dec_03_1056,testDots,2020.2.5,None
79,0,79,0,338.0193233,339.0211534,339.0062402,339.3087114,339.3087114,340.3211324,340.3038779,341.3041497,left,0.335562891,341.3041497,None,0.2,0,0,109346.9176,338.0041259,angel2,1,2020_Dec_03_1056,testDots,2020.2.5,None
80,0,80,0,341.6866773,342.6892082,342.6718233,342.9700396,342.9700396,343.9725802,343.9725802,344.9726489,left,0.267094791,344.9726489,None,0.5,180,1,109350.5878,341.6734739,angel2,1,2020_Dec_03_1056,testDots,2020.2.5,None
81,0,81,0,345.2747245,346.2893956,346.253489,346.5592514,346.5592514,347.5717365,347.554295,348.5538159,left,0.373908281,348.5538159,None,0.2,180,1,109354.1782,345.2577387,angel2,1,2020_Dec_03_1056,testDots,2020.2.5,None
82,0,82,0,348.9709584,349.9729247,349.9592665,350.274336,350.2549382,351.2544685,351.2544685,352.2554632,right,0.560277081,352.2554632,None,0.05,0,1,109357.8703,348.9560525,angel2,1,2020_Dec_03_1056,testDots,2020.2.5,None
83,0,83,0,352.8549353,353.8570745,353.8383117,354.1380199,354.1380199,355.1383746,355.1383746,356.1404025,left,0.387324022,356.1404025,None,0.15,180,1,109361.7524,352.8383105,angel2,1,2020_Dec_03_1056,testDots,2020.2.5,None
84,0,84,0,356.5719532,357.5736073,357.5560113,357.855575,357.855575,358.8557267,358.8557267,359.8564187,right,0.327315095,359.8564187,None,0.1,0,1,109365.4707,356.5569695,angel2,1,2020_Dec_03_1056,testDots,2020.2.5,None
85,0,85,0,360.2248822,361.2254876,361.2073716,361.5076117,361.5076117,362.5263056,362.5086428,363.5158385,left,0.251919583,363.5158385,None,0.05,180,1,109369.1256,360.2101885,angel2,1,2020_Dec_03_1056,testDots,2020.2.5,None
86,0,86,0,363.8065963,364.8077764,364.7905142,365.0899283,365.0899283,366.0922538,366.0922538,367.0934109,left,0.434300643,367.0934109,None,0.2,0,0,109372.7045,363.7900994,angel2,1,2020_Dec_03_1056,testDots,2020.2.5,None
87,0,87,0,367.5738941,368.5739139,368.559222,368.8738872,368.8601943,369.8575773,369.8575773,370.8575889,right,0.87009621,370.8575889,None,0.15,0,1,109376.4723,367.5575749,angel2,1,2020_Dec_03_1056,testDots,2020.2.5,None
88,0,88,0,371.7778741,372.7931258,372.7600342,373.076553,373.0603032,374.0749262,374.0613409,375.0602166,right,0.323559315,375.0602166,None,0.5,0,1,109380.6752,371.7602468,angel2,1,2020_Dec_03_1056,testDots,2020.2.5,None
89,0,89,0,375.429515,376.4444737,376.4111203,376.7258339,376.7114373,377.7254328,377.7114327,378.710249,right,0.481536829,378.710249,None,0.1,0,1,109384.3294,375.4140855,angel2,1,2020_Dec_03_1056,testDots,2020.2.5,None
0,0,0,0,13.61659235,14.63290781,14.58571755,14.89802019,14.89802019,15.9144243,15.89916663,16.89913604,left,0.437235661,16.89913604,None,0.05,0,0,109412.2753,13.59562089,angel3,1,2020_Dec_03_1103,testDots,2020.2.5,None
1,0,1,0,17.39894636,18.40183132,18.36272869,18.66456178,18.66456178,19.6673026,19.6673026,20.66543923,left,0.550930405,20.66543923,None,0.15,180,1,109416.0575,17.38008362,angel3,1,2020_Dec_03_1103,testDots,2020.2.5,None
2,0,2,0,21.25060776,22.26399378,22.23196624,22.54720917,22.53326,23.53595768,23.53595768,24.53478949,right,0.713528976,24.53478949,None,0.5,0,1,109419.9168,21.23389039,angel3,1,2020_Dec_03_1103,testDots,2020.2.5,None
3,0,3,0,25.30231684,26.31677218,26.28411011,26.58277319,26.58277319,27.58689977,27.58689977,28.58190512,left,0.378410157,28.58190512,None,0.1,0,0,109423.9617,25.28044226,angel3,1,2020_Dec_03_1103,testDots,2020.2.5,None
4,0,4,0,28.99805529,30.00195582,29.98150984,30.28192849,30.28192849,31.28485176,31.28485176,32.28227227,left,0.79807169,32.28227227,None,0.2,180,1,109427.6647,28.98353207,angel3,1,2020_Dec_03_1103,testDots,2020.2.5,None
5,0,5,0,33.11631321,34.11743167,34.10010058,34.39876193,34.39876193,35.40112027,35.40112027,36.40303753,left,0.365295182,36.40303753,None,0.2,180,1,109431.7824,33.10054776,angel3,1,2020_Dec_03_1103,testDots,2020.2.5,None
6,0,6,0,36.8007896,37.81649285,37.78294374,38.08529231,38.08529231,39.10165111,39.08622816,40.08644095,right,0.585884854,40.08644095,None,0.15,180,0,109435.4685,36.78527788,angel3,1,2020_Dec_03_1103,testDots,2020.2.5,None
7,0,7,0,40.72027468,41.72030686,41.70324638,42.01659853,42.00066605,43.00076322,43.01679734,44.00528377,right,0.811021433,44.00528377,None,0.05,0,1,109439.3881,40.70400893,angel3,1,2020_Dec_03_1103,testDots,2020.2.5,None
8,0,8,0,44.85056346,45.85606119,45.83612625,46.134039,46.134039,47.13427804,47.13427804,48.13469278,left,0.161624068,48.13469278,None,0.5,180,1,109443.5171,44.83563266,angel3,1,2020_Dec_03_1103,testDots,2020.2.5,None
9,0,9,0,48.3392049,49.35128893,49.31929204,49.61937,49.61937,50.62365659,50.60641139,51.6216063,left,0.130740643,51.6216063,None,0.1,180,1,109447.0077,48.32114711,angel3,1,2020_Dec_03_1103,testDots,2020.2.5,None
10,0,10,0,51.78505707,52.78942711,52.76967299,53.06842533,53.06842533,54.06965094,54.06965094,55.07130265,right,0.193001615,55.07130265,None,0.1,0,1,109450.4529,51.77142291,angel3,1,2020_Dec_03_1103,testDots,2020.2.5,None
11,0,11,0,55.30252287,56.30585596,56.28583667,56.58928732,56.58928732,57.59158333,57.59158333,58.59412756,left,0.470253533,58.59412756,None,0.2,0,0,109453.9693,55.28818063,angel3,1,2020_Dec_03_1103,testDots,2020.2.5,None
12,0,12,0,59.10317777,60.10412533,60.08861811,60.40319912,60.38789806,61.38646619,61.38646619,62.38667664,left,0.253722229,62.38667664,None,0.5,0,0,109457.7682,59.08655549,angel3,1,2020_Dec_03_1103,testDots,2020.2.5,None
13,0,13,0,62.68812475,63.68982912,63.67830436,63.98777725,63.97512154,64.98981995,64.97281083,65.97272825,left,0.563613548,65.97272825,None,0.05,0,0,109461.3552,62.67094753,angel3,1,2020_Dec_03_1103,testDots,2020.2.5,None
14,0,14,0,66.57421703,67.57246311,67.54181911,67.85422762,67.84290803,68.85440694,68.83872561,69.85657108,left,0.479754376,69.85657108,None,0.15,0,0,109465.242,66.55587152,angel3,1,2020_Dec_03_1103,testDots,2020.2.5,None
15,0,15,0,70.37992428,71.39048767,71.35782443,71.67172725,71.65837059,72.65499427,72.65499427,73.67582866,left,0.716499033,73.67582866,None,0.15,0,0,109469.0443,70.35640561,angel3,1,2020_Dec_03_1103,testDots,2020.2.5,None
16,0,16,0,74.44070093,75.4408186,75.42327261,75.72229618,75.72229618,76.72489327,76.72489327,77.74042597,right,2.091884954,77.74042597,None,0.5,0,1,109473.1091,74.42605427,angel3,1,2020_Dec_03_1103,testDots,2020.2.5,None
17,0,17,0,79.87428304,80.87322944,80.85823991,81.17629855,81.15628431,82.15695305,82.15695305,83.15899981,left,0.409351532,83.15899981,None,0.2,180,1,109478.5377,79.85651613,angel3,1,2020_Dec_03_1103,testDots,2020.2.5,None
18,0,18,0,83.61182837,84.62565102,84.59364374,84.90705741,84.89127071,85.8942373,85.8942373,86.89662134,right,0.295696791,86.89662134,None,0.05,0,1,109482.2752,83.59081891,angel3,1,2020_Dec_03_1103,testDots,2020.2.5,None
19,0,19,0,87.24421819,88.26022993,88.22439545,88.52917244,88.52917244,89.54943738,89.52911531,90.52956668,right,0.574775451,90.52956668,None,0.1,0,1,109485.9089,87.22709581,angel3,1,2020_Dec_03_1103,testDots,2020.2.5,None
20,0,20,0,91.14249213,92.14347353,92.12792717,92.42945464,92.42945464,93.44460639,93.42532464,94.42532452,left,1.287029264,94.42532452,None,0.1,180,1,109489.8073,91.12597869,angel3,1,2020_Dec_03_1103,testDots,2020.2.5,None
21,0,21,0,95.74463472,96.74224483,96.74224483,97.04243134,97.04243134,98.04258604,98.02842508,99.02756306,right,0.476776782,99.02756306,None,0.05,0,1,109494.4115,95.72916396,angel3,1,2020_Dec_03_1103,testDots,2020.2.5,None
22,0,22,0,99.54410704,100.5487506,100.5288919,100.829653,100.829653,101.8474066,101.826483,102.826581,left,0.325768399,102.826581,None,0.2,180,1,109498.2147,99.53147879,angel3,1,2020_Dec_03_1103,testDots,2020.2.5,None
23,0,23,0,103.1942439,104.1959173,104.1787948,104.4792281,104.4792281,105.4994783,105.4770391,106.4801588,right,0.568186443,106.4801588,None,0.5,0,1,109501.8589,103.1769607,angel3,1,2020_Dec_03_1103,testDots,2020.2.5,None
24,0,24,0,107.09449,108.0971716,108.0813009,108.3963024,108.3813772,109.396938,109.3772672,110.3784773,left,0.661885785,110.3784773,None,0.15,180,1,109505.7635,107.0815456,angel3,1,2020_Dec_03_1103,testDots,2020.2.5,None
25,0,25,0,111.0780904,112.0795887,112.0664966,112.3784042,112.3651484,113.3617065,113.3617065,114.3621662,left,0.798161643,114.3621662,None,0.1,0,0,109509.7447,111.0627054,angel3,1,2020_Dec_03_1103,testDots,2020.2.5,None
26,0,26,0,115.1976565,116.1984493,116.1846276,116.4807653,116.4807653,117.4793093,117.4793093,118.4808356,left,1.087561968,118.4808356,None,0.05,180,1,109513.8608,115.1787627,angel3,1,2020_Dec_03_1103,testDots,2020.2.5,None
27,0,27,0,119.6155116,120.6163412,120.5984391,120.896292,120.896292,121.8980366,121.8980366,122.9011087,left,0.531183316,122.9011087,None,0.15,180,1,109518.2841,119.6009168,angel3,1,2020_Dec_03_1103,testDots,2020.2.5,None
28,0,28,0,123.4674145,124.4802712,124.4470176,124.7485349,124.7485349,125.7490552,125.7490552,126.7502935,right,0.522034236,126.7502935,None,0.5,0,1,109522.1343,123.4488977,angel3,1,2020_Dec_03_1103,testDots,2020.2.5,None
29,0,29,0,127.3140762,128.3175127,128.2996679,128.6008257,128.6008257,129.6154969,129.6022622,130.600133,right,0.472207716,130.600133,None,0.2,180,0,109525.9786,127.2974378,angel3,1,2020_Dec_03_1103,testDots,2020.2.5,None
30,0,30,0,131.1149271,132.114956,132.0978039,132.4012263,132.4012263,133.4002538,133.4002538,134.3982946,left,0.386015179,134.3982946,None,0.5,180,1,109529.7801,131.0980726,angel3,1,2020_Dec_03_1103,testDots,2020.2.5,None
31,0,31,0,134.8164789,135.8189897,135.7991777,136.0995007,136.0995007,137.102381,137.102381,138.1038071,left,0.50452042,138.1038071,None,0.2,180,1,109533.4828,134.8009656,angel3,1,2020_Dec_03_1103,testDots,2020.2.5,None
32,0,32,0,138.6530479,139.6698216,139.6333781,139.9346558,139.9346558,140.9330763,140.9330763,141.9360624,left,0.480242659,141.9360624,None,0.1,180,1,109537.3187,138.6337845,angel3,1,2020_Dec_03_1103,testDots,2020.2.5,None
33,0,33,0,142.4669697,143.4715429,143.4507945,143.7530152,143.7530152,144.7502213,144.7502213,145.7531013,right,0.391216359,145.7531013,None,0.05,180,0,109541.1368,142.4554473,angel3,1,2020_Dec_03_1103,testDots,2020.2.5,None
34,0,34,0,146.1839044,147.1875227,147.168969,147.4694935,147.4694935,148.4864213,148.4696947,149.46979,left,0.69053026,149.46979,None,0.15,180,1,109544.8526,146.170608,angel3,1,2020_Dec_03_1103,testDots,2020.2.5,None
35,0,35,0,150.2012249,151.2055742,151.1846014,151.4880022,151.4880022,152.4864716,152.4864716,153.4891728,left,1.263258252,153.4891728,None,0.5,180,1,109548.8676,150.1857336,angel3,1,2020_Dec_03_1103,testDots,2020.2.5,None
36,0,36,0,154.7877876,155.8036868,155.769193,156.0714047,156.0714047,157.0737612,157.0737612,158.0720975,left,1.672276173,158.0720975,None,0.05,0,0,109553.4559,154.7727916,angel3,1,2020_Dec_03_1103,testDots,2020.2.5,None
37,0,37,0,159.7867766,160.7934296,160.7709834,161.0711337,161.0711337,162.0864987,162.0700911,163.0756841,left,0.500628668,163.0756841,None,0.1,0,0,109558.4535,159.7717586,angel3,1,2020_Dec_03_1103,testDots,2020.2.5,None
38,0,38,0,163.6247008,164.6219902,164.5884856,164.8901756,164.8901756,165.903645,165.8878179,166.890683,left,0.469642704,166.890683,None,0.2,180,1,109562.2855,163.6129438,angel3,1,2020_Dec_03_1103,testDots,2020.2.5,None
39,0,39,0,167.4046667,168.4067159,168.3942526,168.7058448,168.6881423,169.6880989,169.6880989,170.6899593,right,0.454405017,170.6899593,None,0.15,0,1,109566.072,167.3895443,angel3,1,2020_Dec_03_1103,testDots,2020.2.5,None
40,0,40,0,171.1881993,172.1888113,172.1719732,172.4713813,172.4713813,173.4891252,173.4891252,174.4721873,left,0.608138519,174.4721873,None,0.15,0,0,109569.8537,171.1729842,angel3,1,2020_Dec_03_1103,testDots,2020.2.5,None
41,0,41,0,175.1217986,176.1242797,176.1087055,176.4221015,176.4095995,177.422647,177.4089371,178.4054777,left,0.442850865,178.4054777,None,0.1,180,1,109573.7883,175.1059206,angel3,1,2020_Dec_03_1103,testDots,2020.2.5,None
42,0,42,0,178.8915765,179.9064762,179.8727017,180.1738055,180.1738055,181.1751407,181.1751407,182.1739426,left,0.130412277,182.1739426,None,0.5,180,1,109577.5583,178.8765271,angel3,1,2020_Dec_03_1103,testDots,2020.2.5,None
43,0,43,0,182.3500817,183.3600505,183.3285895,183.6443128,183.6234911,184.6263999,184.6092928,185.606755,right,0.353547297,185.606755,None,0.05,0,1,109581.0138,182.3274395,angel3,1,2020_Dec_03_1103,testDots,2020.2.5,None
44,0,44,0,185.9930974,187.0069876,186.974708,187.276593,187.276593,188.2906652,188.2771635,189.2775974,left,0.410706082,189.2775974,None,0.2,180,1,109584.6586,185.9769648,angel3,1,2020_Dec_03_1103,testDots,2020.2.5,None
45,0,45,0,189.7274065,190.7256897,190.7109008,191.0133352,190.9940109,192.0085581,192.0085581,193.0085411,right,0.383832301,193.0085411,None,0.05,0,1,109588.3946,189.7242948,angel3,1,2020_Dec_03_1103,testDots,2020.2.5,None
46,0,46,0,193.4277904,194.4443068,194.4096819,194.725994,194.7085286,195.7101355,195.692809,196.6922254,right,0.388093981,196.6922254,None,0.2,0,1,109592.0975,193.4108496,angel3,1,2020_Dec_03_1103,testDots,2020.2.5,None
47,0,47,0,197.1264912,198.126261,198.1090105,198.4168617,198.4168617,199.4296161,199.409817,200.4113384,left,0.868961901,200.4113384,None,0.1,180,1,109595.7931,197.1116147,angel3,1,2020_Dec_03_1103,testDots,2020.2.5,None
48,0,48,0,201.3303331,202.3287264,202.3127765,202.6274833,202.6135285,203.6263135,203.6104631,204.6112441,right,1.661160139,204.6112441,None,0.15,0,1,109599.992,201.3095994,angel3,1,2020_Dec_03_1103,testDots,2020.2.5,None
49,0,49,0,206.3104118,207.3126673,207.2932223,207.5957357,207.5957357,208.594651,208.594651,209.596882,right,1.003444589,209.596882,None,0.5,0,1,109604.9758,206.2945773,angel3,1,2020_Dec_03_1103,testDots,2020.2.5,None
50,0,50,0,210.6447573,211.6482727,211.6333161,211.9447622,211.9314453,212.9464032,212.9306062,213.9294667,left,0.430871459,213.9294667,None,0.2,180,1,109609.3141,210.6299535,angel3,1,2020_Dec_03_1103,testDots,2020.2.5,None
51,0,51,0,214.3961324,215.3952131,215.3809477,215.697034,215.6814288,216.6953197,216.679149,217.6803626,left,0.183974433,217.6803626,None,0.1,0,0,109613.0628,214.3788048,angel3,1,2020_Dec_03_1103,testDots,2020.2.5,None
52,0,52,0,217.8977028,218.9120972,218.8789634,219.1797432,219.1797432,220.1796315,220.1796315,221.1819167,right,0.386429613,221.1819167,None,0.15,0,1,109616.5701,217.8885831,angel3,1,2020_Dec_03_1103,testDots,2020.2.5,None
53,0,53,0,221.6144722,222.6151655,222.597581,222.8963086,222.8963086,223.8988405,223.8988405,224.8979737,right,0.422364631,224.8979737,None,0.05,0,1,109620.2847,221.6016102,angel3,1,2020_Dec_03_1103,testDots,2020.2.5,None
54,0,54,0,225.3689961,226.3812837,226.3477915,226.6485666,226.6665233,227.6667953,227.6516493,228.6654541,left,0.318880465,228.6654541,None,0.5,180,1,109624.0371,225.3541382,angel3,1,2020_Dec_03_1103,testDots,2020.2.5,None
55,0,55,0,229.0307745,230.0314289,230.0141211,230.314254,230.314254,231.3141435,231.3141435,232.3156235,right,0.348739673,232.3156235,None,0.15,0,1,109627.6946,229.0137824,angel3,1,2020_Dec_03_1103,testDots,2020.2.5,None
56,0,56,0,232.7053057,233.7185138,233.6682953,233.9833683,233.9833683,234.9841656,234.9841656,235.965168,right,0.53118336,235.965168,None,0.1,0,1,109631.3715,232.6845849,angel3,1,2020_Dec_03_1103,testDots,2020.2.5,None
57,0,57,0,236.5366925,237.5488967,237.517471,237.8152932,237.8152932,238.8179661,238.8179661,239.8178186,left,0.390498671,239.8178186,None,0.2,180,1,109635.2021,236.5182364,angel3,1,2020_Dec_03_1103,testDots,2020.2.5,None
58,0,58,0,240.2492251,241.2519955,241.2323982,241.5345454,241.5345454,242.5515681,242.5352706,243.5373136,right,0.43899228,243.5373136,None,0.05,0,1,109638.9176,240.2354369,angel3,1,2020_Dec_03_1103,testDots,2020.2.5,None
59,0,59,0,244.0167116,245.017049,245.0021461,245.3184417,245.3016565,246.3025538,246.3025538,247.3001353,left,0.220214632,247.3001353,None,0.5,180,1,109642.6816,244.0003433,angel3,1,2020_Dec_03_1103,testDots,2020.2.5,None
60,0,60,0,247.5687924,248.5713065,248.5356443,248.8345252,248.8345252,249.8396606,249.8396606,250.8352499,left,0.413075115,250.8352499,None,0.2,180,1,109646.2269,247.5401666,angel3,1,2020_Dec_03_1103,testDots,2020.2.5,None
61,0,61,0,251.2842902,252.2857945,252.2723722,252.5729778,252.5729778,253.5859152,253.5859152,254.5686554,left,0.351677168,254.5686554,None,0.5,180,1,109649.9498,251.2680815,angel3,1,2020_Dec_03_1103,testDots,2020.2.5,None
62,0,62,0,254.9548919,255.9697805,255.9357739,256.2375726,256.2375726,257.2518807,257.2386812,258.2382292,left,0.290120378,258.2382292,None,0.15,0,0,109653.6221,254.9405317,angel3,1,2020_Dec_03_1103,testDots,2020.2.5,None
63,0,63,0,258.575883,259.5907937,259.5555511,259.8556098,259.8556098,260.8708687,260.8708687,261.8562361,right,5.63E-05,261.8562361,None,0.05,0,1,109657.2443,258.5613405,angel3,1,2020_Dec_03_1103,testDots,2020.2.5,None
64,0,64,0,261.8905638,262.9029942,262.8696512,263.170091,263.170091,264.1725244,264.1725244,265.1709794,left,0.229429882,265.1709794,None,0.1,180,1,109660.5559,261.8729027,angel3,1,2020_Dec_03_1103,testDots,2020.2.5,None
65,0,65,0,265.4394375,266.4368004,266.421986,266.7383716,266.7228242,267.737113,267.7239737,268.7157149,left,0.052617583,268.7157149,None,0.5,0,0,109664.1023,265.4216653,angel3,1,2020_Dec_03_1103,testDots,2020.2.5,None
66,0,66,0,268.8048522,269.8069453,269.7877929,270.0879622,270.0879622,271.0872424,271.0872424,272.0908781,left,0.237457775,272.0908781,None,0.1,180,1,109667.4743,268.7928734,angel3,1,2020_Dec_03_1103,testDots,2020.2.5,None
67,0,67,0,272.3737807,273.3882464,273.3553454,273.6572649,273.6572649,274.6715171,274.6559031,275.6547321,left,0.265600252,275.6547321,None,0.05,180,1,109671.0387,272.354904,angel3,1,2020_Dec_03_1103,testDots,2020.2.5,None
68,0,68,0,275.9547311,276.9549632,276.9426835,277.2550101,277.2422942,278.2572137,278.2422819,279.238736,left,1.297633931,279.238736,None,0.2,0,0,109674.6216,275.9404993,angel3,1,2020_Dec_03_1103,testDots,2020.2.5,None
69,0,69,0,280.5755276,281.5730105,281.559635,281.8729177,281.8586556,282.8748641,282.8577667,283.8562503,left,2.184099326,283.8562503,None,0.15,0,0,109679.2439,280.5598401,angel3,1,2020_Dec_03_1103,testDots,2020.2.5,None
70,0,70,0,286.0898003,287.0930283,287.0739396,287.3765008,287.3765008,288.3740147,288.3740147,289.3777319,left,1.078615133,289.3777319,None,0.1,180,1,109684.7568,286.0758277,angel3,1,2020_Dec_03_1103,testDots,2020.2.5,None
71,0,71,0,290.4919442,291.4925566,291.4573395,291.7779875,291.7779875,292.7771768,292.7611895,293.7631942,right,0.325187123,293.7631942,None,0.15,0,1,109689.1603,290.4742674,angel3,1,2020_Dec_03_1103,testDots,2020.2.5,None
72,0,72,0,294.1264095,295.14338,295.1081449,295.409273,295.409273,296.4114725,296.4114725,297.411578,left,0.308713577,297.411578,None,0.2,180,1,109692.7936,294.1121588,angel3,1,2020_Dec_03_1103,testDots,2020.2.5,None
73,0,73,0,297.7598674,298.7615207,298.7423463,299.042326,299.042326,300.0420862,300.0420862,301.0432398,left,0.317096515,301.0432398,None,0.5,0,0,109696.427,297.7442801,angel3,1,2020_Dec_03_1103,testDots,2020.2.5,None
74,0,74,0,301.3942573,302.3952834,302.3780772,302.6924274,302.6790045,303.6931809,303.6803405,304.6815354,left,0.366798074,304.6815354,None,0.05,0,0,109700.0624,301.3771035,angel3,1,2020_Dec_03_1103,testDots,2020.2.5,None
75,0,75,0,305.08378,306.0955494,306.0764107,306.3788123,306.3788123,307.3952289,307.3767725,308.3772293,left,0.38309921,308.3772293,None,0.5,180,1,109703.7512,305.066897,angel3,1,2020_Dec_03_1103,testDots,2020.2.5,None
76,0,76,0,308.7944387,309.7940574,309.7803736,310.0936555,310.079963,311.0946986,311.0798271,312.0772457,left,0.251067568,312.0772457,None,0.1,180,1,109707.4617,308.7779973,angel3,1,2020_Dec_03_1103,testDots,2020.2.5,None
77,0,77,0,312.3615746,313.3612473,313.3445628,313.6619436,313.6619436,314.6617943,314.6465789,315.6467915,left,1.561567807,315.6467915,None,0.2,0,0,109711.0299,312.3452255,angel3,1,2020_Dec_03_1103,testDots,2020.2.5,None
78,0,78,0,317.2509477,318.2639519,318.2288066,318.5329487,318.5329487,319.5504605,319.5340691,320.5295957,left,0.374726153,320.5295957,None,0.05,180,1,109715.915,317.2305198,angel3,1,2020_Dec_03_1103,testDots,2020.2.5,None
79,0,79,0,320.945718,321.9486995,321.9292322,322.2291059,322.2291059,323.2311652,323.2311652,324.2313378,left,0.320977884,324.2313378,None,0.15,180,1,109719.6113,320.9300319,angel3,1,2020_Dec_03_1103,testDots,2020.2.5,None
80,0,80,0,324.6020021,325.6152288,325.5802736,325.8816138,325.8816138,326.8997133,326.8798691,327.8831908,left,0.405103949,327.8831908,None,0.1,180,1,109723.2678,324.5831245,angel3,1,2020_Dec_03_1103,testDots,2020.2.5,None
81,0,81,0,328.3328489,329.3301821,329.3165689,329.619152,329.619152,330.6305017,330.616434,331.6139858,left,0.370380322,331.6139858,None,0.2,180,1,109726.9948,328.3134208,angel3,1,2020_Dec_03_1103,testDots,2020.2.5,None
82,0,82,0,332.0308243,333.0331685,333.0142077,333.314591,333.314591,334.3168166,334.3168166,335.3157057,right,0.396622229,335.3157057,None,0.15,180,0,109730.6999,332.0177466,angel3,1,2020_Dec_03_1103,testDots,2020.2.5,None
83,0,83,0,335.7488882,336.7522833,336.731472,337.0339017,337.0339017,338.0508748,338.0344313,339.034306,left,0.550047629,339.034306,None,0.05,0,0,109734.4181,335.7363037,angel3,1,2020_Dec_03_1103,testDots,2020.2.5,None
84,0,84,0,339.6351539,340.6499139,340.6164006,340.9179598,340.9179598,341.9322172,341.9164714,342.9177154,right,0.274593807,342.9177154,None,0.5,0,1,109738.3014,339.61745,angel3,1,2020_Dec_03_1103,testDots,2020.2.5,None
85,0,85,0,343.2326992,344.2366636,344.2164442,344.5177394,344.5177394,345.5177353,345.5177353,346.5208417,left,0.327503548,346.5208417,None,0.2,180,1,109741.8978,343.2161572,angel3,1,2020_Dec_03_1103,testDots,2020.2.5,None
86,0,86,0,346.8834177,347.8852955,347.8681656,348.1673935,348.1673935,349.1667333,349.1667333,350.1690328,right,0.543298801,350.1690328,None,0.05,180,0,109745.5495,346.8674326,angel3,1,2020_Dec_03_1103,testDots,2020.2.5,None
87,0,87,0,350.7699473,351.786088,351.7343872,352.0358996,352.0358996,353.0513604,353.0378032,354.0380133,left,1.45030429,354.0380133,None,0.5,180,1,109749.4263,350.7399662,angel3,1,2020_Dec_03_1103,testDots,2020.2.5,None
88,0,88,0,355.5357387,356.5376697,356.5226517,356.8356263,356.8180965,357.8199914,357.8199914,358.8208606,right,0.259482564,358.8208606,None,0.15,180,0,109754.2025,355.5210152,angel3,1,2020_Dec_03_1103,testDots,2020.2.5,None
89,0,89,0,359.1192991,360.1208801,360.103099,360.4034115,360.4034115,361.4022876,361.4022876,362.4025334,left,1.181790557,362.4025334,None,0.1,0,0,109757.7852,359.1029026,angel3,1,2020_Dec_03_1103,testDots,2020.2.5,None
0,0,0,0,16.20323761,17.20328276,17.16818564,17.4891154,17.4891154,18.50395757,18.46990419,19.47050819,left,0.397865173,19.47050819,None,0.05,180,1,109816.1215,16.18656867,angel4,1,2020_Dec_03_1109,testDots,2020.2.5,None
1,0,1,0,19.90379761,20.90559102,20.86816892,21.16867181,21.16867181,22.16846648,22.16846648,23.17000082,right,0.298345848,23.17000082,None,0.5,0,1,109819.8313,19.88531567,angel4,1,2020_Dec_03_1109,testDots,2020.2.5,None
2,0,2,0,23.50406342,24.50460407,24.48765748,24.78640669,24.78640669,25.78655072,25.78655072,26.78628075,left,0.402065146,26.78628075,None,0.2,180,1,109823.4297,23.48792893,angel4,1,2020_Dec_03_1109,testDots,2020.2.5,None
3,0,3,0,27.22204986,28.21991257,28.20490337,28.50303797,28.50303797,29.5053631,29.5053631,30.50706472,left,0.313260339,30.50706472,None,0.1,0,0,109827.1485,27.20580271,angel4,1,2020_Dec_03_1109,testDots,2020.2.5,None
4,0,4,0,30.85715511,31.85508263,31.840368,32.15516242,32.1409642,33.15482222,33.1397539,34.13945351,left,0.312937443,34.13945351,None,0.15,180,1,109830.7782,30.83700964,angel4,1,2020_Dec_03_1109,testDots,2020.2.5,None
5,0,5,0,34.48847332,35.48879394,35.471141,35.77104802,35.77104802,36.77221865,36.77221865,37.77176975,left,0.320575177,37.77176975,None,0.05,180,1,109834.4162,34.47555438,angel4,1,2020_Dec_03_1109,testDots,2020.2.5,None
6,0,6,0,38.14121615,39.15499247,39.12163596,39.42291286,39.42291286,40.42267468,40.42267468,41.42206804,left,0.310252656,41.42206804,None,0.5,180,1,109838.0686,38.12669554,angel4,1,2020_Dec_03_1109,testDots,2020.2.5,None
7,0,7,0,41.77403189,42.77217948,42.75769318,43.07332904,43.05864018,44.05607039,44.05607039,45.05834257,right,0.321969213,45.05834257,None,0.2,0,1,109841.6968,41.7557099,angel4,1,2020_Dec_03_1109,testDots,2020.2.5,None
8,0,8,0,45.42275581,46.42299661,46.40797798,46.72303867,46.70585948,47.70639211,47.70639211,48.70827569,left,0.512106779,48.70827569,None,0.1,180,1,109845.3487,45.4073962,angel4,1,2020_Dec_03_1109,testDots,2020.2.5,None
9,0,9,0,49.26745055,50.27767577,50.24257084,50.54373493,50.54373493,51.55867761,51.54178952,52.54503639,left,0.139355938,52.54503639,None,0.15,0,0,109849.1889,49.24187711,angel4,1,2020_Dec_03_1109,testDots,2020.2.5,None
10,0,10,0,52.72415135,53.72700838,53.70718301,54.00919411,54.00919411,55.00777278,55.00777278,56.00865694,left,0.091699333,56.00865694,None,0.5,180,1,109852.6484,52.70755384,angel4,1,2020_Dec_03_1109,testDots,2020.2.5,None
11,0,11,0,56.14705289,57.15854396,57.12591244,57.42708553,57.42708553,58.42629457,58.42629457,59.43063985,right,0.021721391,59.43063985,None,0.05,0,1,109856.0719,56.12801002,angel4,1,2020_Dec_03_1109,testDots,2020.2.5,None
12,0,12,0,59.49251553,60.49484937,60.4774859,60.77522008,60.77522008,61.77559781,61.77559781,62.77623021,left,1.028133307,62.77623021,None,0.1,0,0,109859.4234,59.48250512,angel4,1,2020_Dec_03_1109,testDots,2020.2.5,None
13,0,13,0,63.84229768,64.84445123,64.8264147,65.12581663,65.12581663,66.12604279,66.12604279,67.12889697,left,1.459448739,67.12889697,None,0.2,0,0,109863.7689,63.82797507,angel4,1,2020_Dec_03_1109,testDots,2020.2.5,None
14,0,14,0,68.62812906,69.63171591,69.61177295,69.91230031,69.91230031,70.92703057,70.91311626,71.91195995,left,0.964393898,71.91195995,None,0.15,180,1,109868.5558,68.61468691,angel4,1,2020_Dec_03_1109,testDots,2020.2.5,None
15,0,15,0,72.91437569,73.91038855,73.89723613,74.2106051,74.19651889,75.19657261,75.19657261,76.1985092,left,0.301840548,76.1985092,None,0.15,180,1,109872.8372,72.8953053,angel4,1,2020_Dec_03_1109,testDots,2020.2.5,None
16,0,16,0,76.54475743,77.54796285,77.53003885,77.82936106,77.82936106,78.83091785,78.83091785,79.82862059,left,0.271767096,79.82862059,None,0.2,180,1,109876.4744,76.53231471,angel4,1,2020_Dec_03_1109,testDots,2020.2.5,None
17,0,17,0,80.14667042,81.1452025,81.13002964,81.44814759,81.43320469,82.44678237,82.43393863,83.43278788,right,0.347595611,83.43278788,None,0.05,0,1,109880.0735,80.13118075,angel4,1,2020_Dec_03_1109,testDots,2020.2.5,None
18,0,18,0,83.81428238,84.81393151,84.79803172,85.0958471,85.0958471,86.09658661,86.09658661,87.09624717,right,0.404119967,87.09624717,None,0.5,0,1,109883.7389,83.79788176,angel4,1,2020_Dec_03_1109,testDots,2020.2.5,None
19,0,19,0,87.54663421,88.54653973,88.53192643,88.83159925,88.83159925,89.83170587,89.83170587,90.82996813,left,1.878413904,90.82996813,None,0.1,0,0,109887.4725,87.53128009,angel4,1,2020_Dec_03_1109,testDots,2020.2.5,None
20,0,20,0,92.74746047,93.74741333,93.7329543,94.03295268,94.03295268,95.03516198,95.03516198,96.03149891,right,0.348861982,96.03149891,None,0.1,0,1,109892.6721,92.73048862,angel4,1,2020_Dec_03_1109,testDots,2020.2.5,None
21,0,21,0,96.41629411,97.42039118,97.40014103,97.70383834,97.70383834,98.720995,98.69909953,99.69950402,left,0.456831554,99.69950402,None,0.05,0,0,109896.3456,96.3978962,angel4,1,2020_Dec_03_1109,testDots,2020.2.5,None
22,0,22,0,100.2165676,101.2163444,101.1823143,101.4845352,101.4845352,102.499064,102.4842443,103.4868617,left,0.517475671,103.4868617,None,0.2,0,0,109900.1321,100.1844362,angel4,1,2020_Dec_03_1109,testDots,2020.2.5,None
23,0,23,0,104.0503486,105.1069447,105.0891699,105.4024905,105.3344202,106.3358806,106.3358806,107.3399681,right,0.360377555,107.3399681,None,0.5,0,1,109903.9764,104.0341611,angel4,1,2020_Dec_03_1109,testDots,2020.2.5,None
24,0,24,0,107.7355028,108.7497608,108.7161889,109.0199636,109.0199636,110.0335511,110.0172993,111.0201779,right,0.392239428,111.0201779,None,0.15,0,1,109907.6598,107.7172412,angel4,1,2020_Dec_03_1109,testDots,2020.2.5,None
25,0,25,0,111.4556648,112.4692981,112.4366548,112.7504436,112.7358811,113.7511567,113.7369113,114.7364139,left,0.339913223,114.7364139,None,0.1,180,1,109911.3805,111.4351575,angel4,1,2020_Dec_03_1109,testDots,2020.2.5,None
26,0,26,0,115.1232631,116.1352572,116.1009878,116.4012529,116.4012529,117.4044678,117.4044678,118.4071532,left,0.413196452,118.4071532,None,0.15,180,1,109915.0465,115.1014072,angel4,1,2020_Dec_03_1109,testDots,2020.2.5,None
27,0,27,0,118.8685414,119.869453,119.8535938,120.1529685,120.1529685,121.1534736,121.1534736,122.1526594,left,0.395730547,122.1526594,None,0.05,0,0,109918.7955,118.8542587,angel4,1,2020_Dec_03_1109,testDots,2020.2.5,None
28,0,28,0,122.5871927,123.5893087,123.5701018,123.8689251,123.8689251,124.8731131,124.8731131,125.8701735,left,0.334165526,125.8701735,None,0.5,180,1,109922.5162,122.5715718,angel4,1,2020_Dec_03_1109,testDots,2020.2.5,None
29,0,29,0,126.2548898,127.255177,127.2193655,127.5195859,127.5195859,128.5273073,128.5273073,129.5236917,left,0.600661156,129.5236917,None,0.2,180,1,109926.1703,126.2214967,angel4,1,2020_Dec_03_1109,testDots,2020.2.5,None
30,0,30,0,130.1703039,131.1723999,131.1563551,131.4728246,131.4540136,132.4535096,132.4535096,133.4544948,left,0.501850835,133.4544948,None,0.2,180,1,109930.0973,130.155701,angel4,1,2020_Dec_03_1109,testDots,2020.2.5,None
31,0,31,0,134.0041923,135.0042287,134.9909288,135.3038821,135.2893518,136.2902169,136.2902169,137.2896656,left,0.354717126,137.2896656,None,0.05,180,1,109933.9333,133.9905909,angel4,1,2020_Dec_03_1109,testDots,2020.2.5,None
32,0,32,0,137.689841,138.6882267,138.6741115,138.9892174,138.9743072,139.9746769,139.9746769,140.9759906,left,0.97233778,140.9759906,None,0.15,0,0,109937.6152,137.6717848,angel4,1,2020_Dec_03_1109,testDots,2020.2.5,None
33,0,33,0,141.990234,142.9905623,142.9738133,143.2744718,143.2744718,144.2761101,144.2761101,145.2744279,right,0.545909991,145.2744279,None,0.1,180,0,109941.9144,141.9722364,angel4,1,2020_Dec_03_1109,testDots,2020.2.5,None
34,0,34,0,145.8558599,146.8558835,146.8404104,147.1438644,147.1438644,148.1580726,148.1392831,149.1415152,right,2.254864095,149.1415152,None,0.5,0,1,109945.7804,145.8392475,angel4,1,2020_Dec_03_1109,testDots,2020.2.5,None
35,0,35,0,151.4403747,152.4468532,152.4262253,152.7257525,152.7257525,153.7238584,153.7238584,154.7261267,right,1.526229891,154.7261267,None,0.05,0,1,109951.3697,151.4286428,angel4,1,2020_Dec_03_1109,testDots,2020.2.5,None
36,0,36,0,156.294582,157.2949363,157.2769914,157.5907832,157.5743995,158.5785474,158.5785474,159.5775423,right,0.442861403,159.5775423,None,0.15,180,0,109956.2228,156.2809224,angel4,1,2020_Dec_03_1109,testDots,2020.2.5,None
37,0,37,0,160.0589267,161.058599,161.0413279,161.3433778,161.3433778,162.3454659,162.3454659,163.3420157,left,0.326338804,163.3420157,None,0.2,180,1,109959.9832,160.0424617,angel4,1,2020_Dec_03_1109,testDots,2020.2.5,None
38,0,38,0,163.7103813,164.727426,164.6922461,164.9919904,164.9919904,165.9922532,165.9922532,166.9951093,right,0.353230193,166.9951093,None,0.5,0,1,109963.634,163.6924283,angel4,1,2020_Dec_03_1109,testDots,2020.2.5,None
39,0,39,0,167.3946821,168.4102217,168.3762099,168.6761846,168.6761846,169.6762632,169.6762632,170.6764507,left,0.271870527,170.6764507,None,0.1,180,1,109967.3208,167.3785777,angel4,1,2020_Dec_03_1109,testDots,2020.2.5,None
40,0,40,0,170.9930194,171.993657,171.9798478,172.2971774,172.2813331,173.2806381,173.2806381,174.2790519,right,0.685291106,174.2790519,None,0.5,0,1,109970.9178,170.9764127,angel4,1,2020_Dec_03_1109,testDots,2020.2.5,None
41,0,41,0,175.0107069,176.0134616,175.9982937,176.2971926,176.2971926,177.2969212,177.2969212,178.2958738,right,0.332449812,178.2958738,None,0.15,0,1,109974.9393,174.9953746,angel4,1,2020_Dec_03_1109,testDots,2020.2.5,None
42,0,42,0,178.6798477,179.6826006,179.6632129,179.9629294,179.9629294,180.9782904,180.9639901,181.9643416,right,0.608029646,181.9643416,None,0.2,0,1,109978.6056,178.664581,angel4,1,2020_Dec_03_1109,testDots,2020.2.5,None
43,0,43,0,182.6119952,183.6124486,183.599924,183.9137962,183.896252,184.8954097,184.8954097,185.8956419,right,0.284680857,185.8956419,None,0.05,0,1,109982.5363,182.5953584,angel4,1,2020_Dec_03_1109,testDots,2020.2.5,None
44,0,44,0,186.2293633,187.2312553,187.2122216,187.5152694,187.5152694,188.5148085,188.5148085,189.5137772,right,0.386591644,189.5137772,None,0.1,0,1,109986.1559,186.2129649,angel4,1,2020_Dec_03_1109,testDots,2020.2.5,None
45,0,45,0,189.9328038,190.9302617,190.9161746,191.2298539,191.2150014,192.2307572,192.2158852,193.2134484,left,0.502910632,193.2134484,None,0.15,0,0,109989.859,189.9171294,angel4,1,2020_Dec_03_1109,testDots,2020.2.5,None
46,0,46,0,193.7636608,194.7658264,194.7470356,195.0469916,195.0469916,196.0492285,196.0492285,197.0503906,right,0.594021718,197.0503906,None,0.5,0,1,109993.6888,193.7474392,angel4,1,2020_Dec_03_1109,testDots,2020.2.5,None
47,0,47,0,197.6821881,198.6975555,198.6642371,198.9645008,198.9645008,199.9654197,199.9654197,200.9699263,right,0.27447771,200.9699263,None,0.2,0,1,109997.6084,197.667504,angel4,1,2020_Dec_03_1109,testDots,2020.2.5,None
48,0,48,0,201.2836951,202.2998252,202.2743174,202.5850794,202.5647932,203.5649764,203.5649764,204.5649998,left,1.271342035,204.5649998,None,0.05,180,1,110001.2097,201.2649335,angel4,1,2020_Dec_03_1109,testDots,2020.2.5,None
49,0,49,0,205.8851328,206.8992541,206.8662324,207.1659313,207.1659313,208.1668955,208.1668955,209.1686434,right,1.579746109,209.1686434,None,0.1,0,1,110005.8114,205.8684224,angel4,1,2020_Dec_03_1109,testDots,2020.2.5,None
50,0,50,0,210.7834281,211.7867573,211.7664518,212.0665325,212.0665325,213.0686827,213.0686827,214.0677153,right,0.864641988,214.0677153,None,0.05,180,0,110010.7102,210.7689181,angel4,1,2020_Dec_03_1109,testDots,2020.2.5,None
51,0,51,0,214.9703305,215.9846713,215.9508306,216.2528202,216.2528202,217.2711166,217.2548521,218.2537523,left,0.342629298,218.2537523,None,0.15,180,1,110014.8964,214.9525326,angel4,1,2020_Dec_03_1109,testDots,2020.2.5,None
52,0,52,0,218.6346054,219.6370661,219.6243815,219.9369658,219.9176312,220.9179104,220.9179104,221.918056,right,0.086351107,221.918056,None,0.2,0,1,110018.5598,218.617891,angel4,1,2020_Dec_03_1109,testDots,2020.2.5,None
53,0,53,0,222.0533474,223.0684154,223.0349399,223.3349129,223.3349129,224.3401737,224.3401737,225.3354354,left,0.31693676,225.3354354,None,0.5,180,1,110021.9767,222.0354213,angel4,1,2020_Dec_03_1109,testDots,2020.2.5,None
54,0,54,0,225.6878545,226.6874996,226.6714438,226.9875533,226.9726893,227.9874679,227.9701165,228.9689837,right,0.371346817,228.9689837,None,0.1,0,1,110025.613,225.6716044,angel4,1,2020_Dec_03_1109,testDots,2020.2.5,None
55,0,55,0,229.3888891,230.4041718,230.3692764,230.6696976,230.6696976,231.6717932,231.6717932,232.6715988,right,0.300756251,232.6715988,None,0.1,180,0,110029.3161,229.3725658,angel4,1,2020_Dec_03_1109,testDots,2020.2.5,None
56,0,56,0,233.0033013,234.006475,233.9867488,234.2900263,234.2900263,235.3104238,235.2916905,236.2922407,right,0.704096481,236.2922407,None,0.5,0,1,110032.9314,232.9895537,angel4,1,2020_Dec_03_1109,testDots,2020.2.5,None
57,0,57,0,237.0374341,238.0393398,238.0220533,238.3228618,238.3228618,239.3211002,239.3211002,240.3210258,right,0.21133549,240.3210258,None,0.15,0,1,110036.9636,237.0225274,angel4,1,2020_Dec_03_1109,testDots,2020.2.5,None
58,0,58,0,240.5718813,241.5754794,241.5545946,241.8559563,241.8559563,242.8559252,242.8559252,243.8570718,right,0.379281319,243.8570718,None,0.2,0,1,110040.4976,240.5566401,angel4,1,2020_Dec_03_1109,testDots,2020.2.5,None
59,0,59,0,244.2758619,245.2954822,245.2551009,245.5560308,245.5560308,246.5572619,246.5572619,247.5559527,left,0.456405669,247.5559527,None,0.05,0,0,110044.1987,244.2551561,angel4,1,2020_Dec_03_1109,testDots,2020.2.5,None
60,0,60,0,248.0564497,249.0561354,249.0391835,249.3415399,249.3415399,250.3592458,250.3410865,251.3420104,left,0.350346715,251.3420104,None,0.1,0,0,110047.9804,248.0389632,angel4,1,2020_Dec_03_1109,testDots,2020.2.5,None
61,0,61,0,251.7417725,252.7564282,252.7237129,253.0231946,253.0231946,254.0252962,254.0252962,255.0257947,right,0.458625966,255.0257947,None,0.5,0,1,110051.6675,251.7259424,angel4,1,2020_Dec_03_1109,testDots,2020.2.5,None
62,0,62,0,255.5238195,256.52572,256.5087377,256.824667,256.8069854,257.8072532,257.8072532,258.8080005,right,1.268355429,258.8080005,None,0.15,180,0,110055.4492,255.5083815,angel4,1,2020_Dec_03_1109,testDots,2020.2.5,None
63,0,63,0,260.1144773,261.1245712,261.0914642,261.3935642,261.3935642,262.4079035,262.3920494,263.3943508,left,0.273983082,263.3943508,None,0.2,180,1,110060.0398,260.0941872,angel4,1,2020_Dec_03_1109,testDots,2020.2.5,None
64,0,64,0,263.708509,264.7096522,264.6962451,265.0093215,264.9920021,265.9917591,265.9917591,266.9920138,right,0.30035821,266.9920138,None,0.05,0,1,110063.633,263.6919525,angel4,1,2020_Dec_03_1109,testDots,2020.2.5,None
65,0,65,0,267.3279246,268.3277971,268.3105916,268.6102873,268.6102873,269.6125577,269.6125577,270.6103794,right,0.585976245,270.6103794,None,0.1,180,0,110067.2559,267.3129084,angel4,1,2020_Dec_03_1109,testDots,2020.2.5,None
66,0,66,0,271.2432862,272.2483732,272.229673,272.529742,272.529742,273.5469101,273.5267168,274.5290601,left,0.363299017,274.5290601,None,0.15,180,1,110071.1711,271.2294245,angel4,1,2020_Dec_03_1109,testDots,2020.2.5,None
67,0,67,0,274.9267262,275.9288466,275.909995,276.209928,276.209928,277.2111201,277.2111201,278.2108053,left,0.385544052,278.2108053,None,0.5,180,1,110074.8539,274.9127349,angel4,1,2020_Dec_03_1109,testDots,2020.2.5,None
68,0,68,0,278.6441147,279.6477033,279.6274133,279.927584,279.927584,280.9286273,280.9286273,281.9307241,left,0.337594144,281.9307241,None,0.05,0,0,110078.572,278.6306106,angel4,1,2020_Dec_03_1109,testDots,2020.2.5,None
69,0,69,0,282.3127776,283.3146976,283.2828079,283.5992695,283.57897,284.5850259,284.5850259,285.5803969,left,0.303978513,285.5803969,None,0.2,180,1,110082.2322,282.2849852,angel4,1,2020_Dec_03_1109,testDots,2020.2.5,None
70,0,70,0,285.9304184,286.928745,286.913277,287.2300966,287.2154135,288.213969,288.213969,289.2136492,left,0.382707329,289.2136492,None,0.15,180,1,110085.8525,285.911748,angel4,1,2020_Dec_03_1109,testDots,2020.2.5,None
71,0,71,0,289.6311057,290.6300592,290.6134986,290.9130209,290.9130209,291.9157335,291.9157335,292.9165965,left,0.415742405,292.9165965,None,0.2,180,1,110089.5567,289.6154554,angel4,1,2020_Dec_03_1109,testDots,2020.2.5,None
72,0,72,0,293.3836499,294.4026802,294.3651037,294.6813157,294.6665211,295.6799602,295.6664101,296.664679,left,0.259668411,296.664679,None,0.1,180,1,110093.3085,293.364231,angel4,1,2020_Dec_03_1109,testDots,2020.2.5,None
73,0,73,0,296.9659228,297.9656398,297.9498503,298.2498216,298.2498216,299.266167,299.250374,300.2545694,right,0.205799362,300.2545694,None,0.05,180,0,110096.8892,296.9486862,angel4,1,2020_Dec_03_1109,testDots,2020.2.5,None
74,0,74,0,300.5023073,301.5149711,301.4809453,301.7827556,301.7827556,302.7811403,302.7811403,303.7831429,left,0.365238239,303.7831429,None,0.5,180,1,110100.4304,300.4876319,angel4,1,2020_Dec_03_1109,testDots,2020.2.5,None
75,0,75,0,304.1835194,305.1822949,305.1669248,305.4653496,305.4653496,306.4651967,306.4651967,307.4654892,right,0.394856628,307.4654892,None,0.2,0,1,110104.1104,304.1685432,angel4,1,2020_Dec_03_1109,testDots,2020.2.5,None
76,0,76,0,307.8989107,308.9019896,308.8821955,309.1825585,309.1825585,310.1863071,310.1863071,311.1826175,left,0.421719132,311.1826175,None,0.15,180,1,110107.8268,307.8858691,angel4,1,2020_Dec_03_1109,testDots,2020.2.5,None
77,0,77,0,311.6501629,312.6522016,312.6337156,312.9329169,312.9329169,313.9335117,313.9335117,314.9338785,left,0.17447649,314.9338785,None,0.1,180,1,110111.5775,311.6363108,angel4,1,2020_Dec_03_1109,testDots,2020.2.5,None
78,0,78,0,315.1501426,316.1506532,316.1361831,316.4377416,316.4377416,317.4382059,317.4382059,318.4341926,left,0.746251458,318.4341926,None,0.05,0,0,110115.0744,315.1330877,angel4,1,2020_Dec_03_1109,testDots,2020.2.5,None
79,0,79,0,319.2190682,320.2176818,320.202402,320.5182132,320.5035562,321.53491,321.5103846,322.504108,right,0.340236211,322.504108,None,0.5,0,1,110119.1448,319.2035491,angel4,1,2020_Dec_03_1109,testDots,2020.2.5,None
80,0,80,0,322.8854142,323.8865892,323.8690823,324.16979,324.16979,325.170297,325.170297,326.1690421,left,0.179302763,326.1690421,None,0.5,180,1,110122.809,322.8683738,angel4,1,2020_Dec_03_1109,testDots,2020.2.5,None
81,0,81,0,326.4027014,327.4034071,327.3867837,327.6853994,327.6853994,328.6872232,328.6872232,329.687388,left,0.348965125,329.687388,None,0.2,0,0,110126.3213,326.3760461,angel4,1,2020_Dec_03_1109,testDots,2020.2.5,None
82,0,82,0,330.0693875,331.0691009,331.0554772,331.3690657,331.3558485,332.3706966,332.3706966,333.3547031,left,0.369637644,333.3547031,None,0.05,180,1,110129.9984,330.0570151,angel4,1,2020_Dec_03_1109,testDots,2020.2.5,None
83,0,83,0,333.7696923,334.7716185,334.7532982,335.053202,335.053202,336.0532506,336.0532506,337.0541479,right,0.510224064,337.0541479,None,0.15,0,1,110133.6959,333.7553483,angel4,1,2020_Dec_03_1109,testDots,2020.2.5,None
84,0,84,0,337.6038823,338.6057773,338.5910745,338.9039343,338.8912051,339.9041408,339.8924366,340.8874145,left,0.38095003,340.8874145,None,0.1,180,1,110137.5289,337.5871653,angel4,1,2020_Dec_03_1109,testDots,2020.2.5,None
85,0,85,0,341.3120111,342.3236177,342.2912926,342.589716,342.589716,343.6050339,343.5881397,344.5886958,right,0.071680153,344.5886958,None,0.5,0,1,110141.2381,341.2904458,angel4,1,2020_Dec_03_1109,testDots,2020.2.5,None
86,0,86,0,344.7047317,345.7060919,345.6911383,345.9913989,345.9913989,347.0084077,346.9889046,347.9884722,right,0.175930719,347.9884722,None,0.05,0,1,110144.6301,344.6884742,angel4,1,2020_Dec_03_1109,testDots,2020.2.5,None
87,0,87,0,348.2063379,349.2075105,349.190996,349.509125,349.509125,350.5244902,350.4902792,351.4931959,left,0.463143243,351.4931959,None,0.2,180,1,110148.1354,348.1936387,angel4,1,2020_Dec_03_1109,testDots,2020.2.5,None
88,0,88,0,351.9922386,353.0078876,352.9729748,353.2751001,353.2751001,354.2780643,354.2780643,355.2801997,left,0.500156522,355.2801997,None,0.15,180,1,110151.9198,351.9763498,angel4,1,2020_Dec_03_1109,testDots,2020.2.5,None
89,0,89,0,355.8236925,356.8260263,356.8072547,357.1067086,357.1067086,358.1068563,358.1068563,359.107467,left,0.44091901,359.107467,None,0.1,0,0,110155.7488,355.8065505,angel4,1,2020_Dec_03_1109,testDots,2020.2.5,None
0,0,0,0,13.15580238,14.16860046,14.13497809,14.43508884,14.43508884,15.43506996,15.43506996,16.43732644,right,0.535084315,16.43732644,None,0.05,180,0,110185.438,13.13752111,angel5,1,2020_Dec_03_1116,testDots,2020.2.5,None
1,0,1,0,17.0200756,18.01893432,18.00679054,18.31901284,18.30652379,19.30259561,19.30259561,20.30305389,right,0.293372697,20.30305389,None,0.15,180,0,110189.3071,17.00385,angel5,1,2020_Dec_03_1116,testDots,2020.2.5,None
2,0,2,0,20.63639083,21.6363464,21.62301748,21.92411156,21.92411156,22.9380711,22.9211673,23.92270103,left,0.313717664,23.92270103,None,0.5,180,1,110192.9209,20.61969239,angel5,1,2020_Dec_03_1116,testDots,2020.2.5,None
3,0,3,0,24.27012044,25.27162373,25.25362899,25.55368065,25.55368065,26.55662847,26.55662847,27.55646117,right,0.327971194,27.55646117,None,0.2,0,1,110196.5553,24.25380166,angel5,1,2020_Dec_03_1116,testDots,2020.2.5,None
4,0,4,0,27.92898503,28.93964011,28.90710471,29.22064167,29.22064167,30.22096605,30.22096605,31.20754985,left,0.268880029,31.20754985,None,0.1,0,0,110200.2135,27.90847478,angel5,1,2020_Dec_03_1116,testDots,2020.2.5,None
5,0,5,0,31.50714848,32.50488966,32.48984783,32.80906439,32.79428349,33.80526324,33.7900931,34.79095821,left,0.637418146,34.79095821,None,0.5,180,1,110203.7956,31.49339475,angel5,1,2020_Dec_03_1116,testDots,2020.2.5,None
6,0,6,0,35.47384754,36.49014438,36.45529689,36.75678805,36.75678805,37.75748918,37.75748918,38.75588989,left,0.336544468,38.75588989,None,0.1,180,1,110207.7571,35.45577962,angel5,1,2020_Dec_03_1116,testDots,2020.2.5,None
7,0,7,0,39.12476103,40.1392154,40.10573528,40.40592794,40.40592794,41.40699864,41.40699864,42.40819206,right,0.124213782,42.40819206,None,0.2,180,0,110211.4165,39.11511497,angel5,1,2020_Dec_03_1116,testDots,2020.2.5,None
8,0,8,0,42.57354804,43.57429945,43.55726555,43.85651726,43.85651726,44.8572594,44.8572594,45.8583625,left,0.338035646,45.8583625,None,0.05,0,0,110214.8596,42.55786214,angel5,1,2020_Dec_03_1116,testDots,2020.2.5,None
9,0,9,0,46.24001385,47.24345475,47.22747882,47.54191186,47.52664373,48.52701852,48.52701852,49.52401762,right,0.672403787,49.52401762,None,0.15,0,1,110218.5258,46.22464837,angel5,1,2020_Dec_03_1116,testDots,2020.2.5,None
10,0,10,0,50.24279569,51.25772763,51.22442088,51.52650132,51.52650132,52.54125956,52.52691489,53.52788369,left,0.364528078,53.52788369,None,0.1,0,0,110222.5277,50.22582916,angel5,1,2020_Dec_03_1116,testDots,2020.2.5,None
11,0,11,0,53.94319418,54.94377197,54.91173449,55.20966367,55.20966367,56.20871777,56.20871777,57.21164791,left,0.328786448,57.21164791,None,0.05,180,1,110226.2216,53.91223902,angel5,1,2020_Dec_03_1116,testDots,2020.2.5,None
12,0,12,0,57.57921441,58.59405532,58.56119432,58.86054184,58.86054184,59.86009209,59.86009209,60.86217464,left,1.590213744,60.86217464,None,0.5,0,0,110229.8667,57.5628245,angel5,1,2020_Dec_03_1116,testDots,2020.2.5,None
13,0,13,0,62.49290499,63.49328176,63.48018449,63.79357648,63.78021706,64.79591889,64.78333529,65.77802786,right,0.362417749,65.77802786,None,0.15,0,1,110234.7802,62.47850037,angel5,1,2020_Dec_03_1116,testDots,2020.2.5,None
14,0,14,0,66.17739404,67.17690534,67.16250515,67.47729081,67.46215234,68.46045365,68.46045365,69.46072755,right,0.567672953,69.46072755,None,0.2,0,1,110238.4656,66.16364513,angel5,1,2020_Dec_03_1116,testDots,2020.2.5,None
15,0,15,0,70.08060459,71.08472474,71.06531197,71.37936809,71.36411965,72.37908229,72.36309768,73.36430213,left,0.272115667,73.36430213,None,0.15,180,1,110242.3639,70.06077161,angel5,1,2020_Dec_03_1116,testDots,2020.2.5,None
16,0,16,0,73.67831271,74.67900033,74.66196704,74.96136506,74.96136506,75.96543625,75.96543625,76.96532834,right,0.183020916,76.96532834,None,0.05,0,1,110245.963,73.661461,angel5,1,2020_Dec_03_1116,testDots,2020.2.5,None
17,0,17,0,77.19557229,78.19699325,78.1826418,78.49565654,78.47884293,79.47898181,79.47898181,80.48317352,left,0.353246118,80.48317352,None,0.1,180,1,110249.4812,77.17962967,angel5,1,2020_Dec_03_1116,testDots,2020.2.5,None
18,0,18,0,80.88058218,81.88745072,81.86531909,82.16441749,82.16441749,83.16286969,83.16286969,84.16544516,left,0.15102644,84.16544516,None,0.5,180,1,110253.1693,80.86586203,angel5,1,2020_Dec_03_1116,testDots,2020.2.5,None
19,0,19,0,84.36326843,85.36546594,85.34649268,85.64665932,85.64665932,86.647899,86.647899,87.6490482,right,0.35542773,87.6490482,None,0.2,0,1,110256.6486,84.34730858,angel5,1,2020_Dec_03_1116,testDots,2020.2.5,None
20,0,20,0,88.05039414,89.06386125,89.0305396,89.33080692,89.33080692,90.33141831,90.33141831,91.3322868,right,0.696158351,91.3322868,None,0.05,0,1,110260.3371,88.0337199,angel5,1,2020_Dec_03_1116,testDots,2020.2.5,None
21,0,21,0,92.0647768,93.06871045,93.05053004,93.34811323,93.34811323,94.34840051,94.34840051,95.3493921,left,0.199094145,95.3493921,None,0.2,180,1,110264.352,92.05001761,angel5,1,2020_Dec_03_1116,testDots,2020.2.5,None
22,0,22,0,95.58149562,96.58454246,96.56532774,96.8669363,96.8669363,97.88471852,97.86537502,98.86854695,left,0.279883612,98.86854695,None,0.5,0,0,110267.8696,95.56805027,angel5,1,2020_Dec_03_1116,testDots,2020.2.5,None
23,0,23,0,99.18244716,100.1835475,100.1684626,100.4849426,100.4655768,101.4661389,101.4661389,102.4666396,left,0.273772534,102.4666396,None,0.1,0,0,110271.4681,99.16647112,angel5,1,2020_Dec_03_1116,testDots,2020.2.5,None
24,0,24,0,102.7871081,103.8027238,103.7690235,104.0828485,104.0680488,105.0849906,105.0849906,106.0684469,left,0.367962782,106.0684469,None,0.15,180,1,110275.0757,102.7723905,angel5,1,2020_Dec_03_1116,testDots,2020.2.5,None
25,0,25,0,106.4834993,107.4861266,107.4668567,107.767786,107.767786,108.766875,108.766875,109.7673899,left,0.285075708,109.7673899,None,0.5,180,1,110278.7692,106.4679904,angel5,1,2020_Dec_03_1116,testDots,2020.2.5,None
26,0,26,0,110.090592,111.1018257,111.0838908,111.3846776,111.3846776,112.3841635,112.3841635,113.3853238,left,0.099091512,113.3853238,None,0.1,0,0,110282.3791,110.0750989,angel5,1,2020_Dec_03_1116,testDots,2020.2.5,None
27,0,27,0,113.5179269,114.5194638,114.5042177,114.8033153,114.8033153,115.8029315,115.8029315,116.8019168,right,0.362493576,116.8019168,None,0.05,0,1,110285.8049,113.5036971,angel5,1,2020_Dec_03_1116,testDots,2020.2.5,None
28,0,28,0,117.2024703,118.2044845,118.1872479,118.4873661,118.4873661,119.5046377,119.4873637,120.4853813,left,0.327034001,120.4853813,None,0.2,180,1,110289.4899,117.1886498,angel5,1,2020_Dec_03_1116,testDots,2020.2.5,None
29,0,29,0,120.8565164,121.8692051,121.8378377,122.1361462,122.1361462,123.1362343,123.1362343,124.1391004,left,0.297306742,124.1391004,None,0.15,180,1,110293.1444,120.8400882,angel5,1,2020_Dec_03_1116,testDots,2020.2.5,None
30,0,30,0,124.471671,125.4865924,125.4533128,125.7533966,125.7533966,126.753536,126.753536,127.7564448,right,0.303981296,127.7564448,None,0.5,0,1,110296.756,124.4544599,angel5,1,2020_Dec_03_1116,testDots,2020.2.5,None
31,0,31,0,128.103828,129.1037487,129.0913951,129.4053431,129.3918758,130.4075373,130.3873202,131.3880928,left,0.424347599,131.3880928,None,0.05,0,0,110300.3899,128.0886249,angel5,1,2020_Dec_03_1116,testDots,2020.2.5,None
32,0,32,0,131.8562036,132.8561033,132.8429734,133.1613344,133.1384782,134.140707,134.140707,135.140236,left,0.168181338,135.140236,None,0.2,0,0,110304.1389,131.8377683,angel5,1,2020_Dec_03_1116,testDots,2020.2.5,None
33,0,33,0,135.3554358,136.3548884,136.3382722,136.6390505,136.6390505,137.6487279,137.6487279,138.6492481,left,1.259170931,138.6492481,None,0.1,180,1,110307.647,135.3449432,angel5,1,2020_Dec_03_1116,testDots,2020.2.5,None
34,0,34,0,139.9737362,140.9893588,140.9392398,141.2413866,141.2413866,142.2413278,142.2413278,143.2397346,left,0.620688206,143.2397346,None,0.15,0,0,110312.2577,139.9661728,angel5,1,2020_Dec_03_1116,testDots,2020.2.5,None
35,0,35,0,143.9097089,144.9241958,144.889914,145.1898687,145.1898687,146.1905976,146.1905976,147.191284,left,0.317188005,147.191284,None,0.15,0,0,110316.1959,143.894565,angel5,1,2020_Dec_03_1116,testDots,2020.2.5,None
36,0,36,0,147.5567879,148.5606926,148.5401542,148.8416156,148.8416156,149.8569402,149.8425071,150.8420455,left,0.34642799,150.8420455,None,0.2,180,1,110319.8431,147.5414489,angel5,1,2020_Dec_03_1116,testDots,2020.2.5,None
37,0,37,0,151.2241492,152.2244421,152.2096253,152.526034,152.5102914,153.5266896,153.5079174,154.5076367,left,0.432770156,154.5076367,None,0.1,0,0,110323.5094,151.2085066,angel5,1,2020_Dec_03_1116,testDots,2020.2.5,None
38,0,38,0,154.9766058,155.9785714,155.9639583,156.2772415,156.2579232,157.2584268,157.2584268,158.2583435,right,0.330044569,158.2583435,None,0.05,0,1,110327.2631,154.9595946,angel5,1,2020_Dec_03_1116,testDots,2020.2.5,None
39,0,39,0,158.6260057,159.6278781,159.6087081,159.9109841,159.9109841,160.9121574,160.9121574,161.9142509,left,1.618164909,161.9142509,None,0.5,180,1,110330.9135,158.611948,angel5,1,2020_Dec_03_1116,testDots,2020.2.5,None
40,0,40,0,163.577729,164.5929832,164.559512,164.8615074,164.8615074,165.8608622,165.8608622,166.8630565,left,0.725326535,166.8630565,None,0.05,0,0,110335.8632,163.5617311,angel5,1,2020_Dec_03_1116,testDots,2020.2.5,None
41,0,41,0,167.6270818,168.6324978,168.6119073,168.9140269,168.9140269,169.920598,169.920598,170.9160848,left,0.168324006,170.9160848,None,0.5,180,1,110339.9133,167.6128342,angel5,1,2020_Dec_03_1116,testDots,2020.2.5,None
42,0,42,0,171.1275374,172.1292926,172.1108941,172.4121255,172.4121255,173.4128261,173.4128261,174.412358,left,0.368044338,174.412358,None,0.15,180,1,110343.4128,171.1107859,angel5,1,2020_Dec_03_1116,testDots,2020.2.5,None
43,0,43,0,174.8302166,175.8283468,175.8127297,176.1143529,176.1143529,177.1284723,177.1128791,178.1185947,left,0.405819073,178.1185947,None,0.1,0,0,110347.1172,174.811897,angel5,1,2020_Dec_03_1116,testDots,2020.2.5,None
44,0,44,0,178.561889,179.5619535,179.5468239,179.8455264,179.8455264,180.8471309,180.8471309,181.8480736,left,0.196352173,181.8480736,None,0.2,0,0,110350.8508,178.548954,angel5,1,2020_Dec_03_1116,testDots,2020.2.5,None
45,0,45,0,182.0826721,183.0975585,183.0520387,183.3622699,183.3622699,184.3628354,184.3628354,185.3461046,left,0.474314538,185.3461046,None,0.1,180,1,110354.3698,182.0636038,angel5,1,2020_Dec_03_1116,testDots,2020.2.5,None
46,0,46,0,185.8685015,186.8798019,186.8487027,187.1647766,187.1466237,188.1492728,188.1492728,189.1490436,left,0.431360751,189.1490436,None,0.2,0,0,110358.1533,185.8503208,angel5,1,2020_Dec_03_1116,testDots,2020.2.5,None
47,0,47,0,189.6144356,190.6175726,190.5976673,190.8988791,190.8988791,191.9143037,191.9005303,192.9005225,right,1.527854143,192.9005225,None,0.05,0,1,110361.9009,189.5994044,angel5,1,2020_Dec_03_1116,testDots,2020.2.5,None
48,0,48,0,194.4667172,195.4644559,195.4499608,195.751754,195.751754,196.7648448,196.748344,197.7516667,left,0.372737879,197.7516667,None,0.15,180,1,110366.7546,194.4531986,angel5,1,2020_Dec_03_1116,testDots,2020.2.5,None
49,0,49,0,198.1651723,199.1678723,199.1490442,199.4485233,199.4485233,200.4485539,200.4485539,201.4487081,right,0.259720687,201.4487081,None,0.5,0,1,110370.454,198.1521795,angel5,1,2020_Dec_03_1116,testDots,2020.2.5,None
50,0,50,0,201.750064,202.7672755,202.7322452,203.0322743,203.0322743,204.0326237,204.0326237,205.0413245,left,0.323109195,205.0413245,None,0.05,180,1,110374.0379,201.7352997,angel5,1,2020_Dec_03_1116,testDots,2020.2.5,None
51,0,51,0,205.4005785,206.4183672,206.3828896,206.6850763,206.6850763,207.6848868,207.6848868,208.6839905,left,0.14448638,208.6839905,None,0.15,0,0,110377.6879,205.3856361,angel5,1,2020_Dec_03_1116,testDots,2020.2.5,None
52,0,52,0,208.8706164,209.8859668,209.8347028,210.1346661,210.1346661,211.1394578,211.1394578,212.1359828,left,0.500432227,212.1359828,None,0.1,180,1,110381.1563,208.8503315,angel5,1,2020_Dec_03_1116,testDots,2020.2.5,None
53,0,53,0,212.669317,213.6862717,213.6508489,213.9677702,213.9677702,214.9708264,214.9555823,215.9539658,left,0.386447421,215.9539658,None,0.2,0,0,110384.9553,212.6531879,angel5,1,2020_Dec_03_1116,testDots,2020.2.5,None
54,0,54,0,216.3871891,217.4023607,217.3682486,217.6708781,217.6708781,218.6850593,218.6703576,219.6721662,left,0.532268957,219.6721662,None,0.5,180,1,110388.6722,216.3693502,angel5,1,2020_Dec_03_1116,testDots,2020.2.5,None
55,0,55,0,220.2377155,221.2371925,221.2217576,221.5355195,221.5212345,222.5194112,222.5194112,223.5223257,right,0.298118517,223.5223257,None,0.5,0,1,110392.5235,220.2210895,angel5,1,2020_Dec_03_1116,testDots,2020.2.5,None
56,0,56,0,223.8604326,224.8750177,224.8387188,225.153054,225.1371393,226.1439048,226.1227281,227.1402845,left,0.512186467,227.1402845,None,0.15,180,1,110396.1465,223.8392054,angel5,1,2020_Dec_03_1116,testDots,2020.2.5,None
57,0,57,0,227.6871313,228.689132,228.6718796,228.9731703,228.9731703,229.9942075,229.9723686,230.97336,left,0.407016119,230.97336,None,0.2,0,0,110399.9754,227.6736333,angel5,1,2020_Dec_03_1116,testDots,2020.2.5,None
58,0,58,0,231.4202859,232.4203221,232.4055703,232.7062416,232.7062416,233.7095282,233.7095282,234.7047762,right,0.219654775,234.7047762,None,0.1,0,1,110403.7056,231.4038978,angel5,1,2020_Dec_03_1116,testDots,2020.2.5,None
59,0,59,0,234.9615448,235.9765906,235.9399903,236.240623,236.240623,237.2379629,237.2379629,238.2214909,left,0.350945495,238.2214909,None,0.05,0,0,110407.248,234.9422852,angel5,1,2020_Dec_03_1116,testDots,2020.2.5,None
60,0,60,0,238.6234418,239.6219782,239.6093565,239.9267096,239.9067822,240.9067752,240.9067752,241.9082308,left,0.29622134,241.9082308,None,0.05,180,1,110410.9059,238.6049756,angel5,1,2020_Dec_03_1116,testDots,2020.2.5,None
61,0,61,0,242.2389519,243.2389242,243.2233682,243.5262173,243.5262173,244.5399641,244.5225313,245.5227027,left,0.377670567,245.5227027,None,0.1,0,0,110414.5263,242.2244958,angel5,1,2020_Dec_03_1116,testDots,2020.2.5,None
62,0,62,0,245.9431184,246.9429577,246.9267077,247.2434274,247.225412,248.2237751,248.2237751,249.2260178,left,0.242453046,249.2260178,None,0.15,0,0,110418.2321,245.9302838,angel5,1,2020_Dec_03_1116,testDots,2020.2.5,None
63,0,63,0,249.5067113,250.507777,250.4903536,250.7941345,250.7941345,251.809959,251.7903688,252.7910193,left,0.253386837,252.7910193,None,0.5,180,1,110421.7922,249.4906541,angel5,1,2020_Dec_03_1116,testDots,2020.2.5,None
64,0,64,0,253.0801805,254.0934927,254.0439832,254.3410192,254.3598628,255.3603167,255.3603167,256.3437285,left,0.41267097,256.3437285,None,0.2,0,0,110425.3673,253.0612188,angel5,1,2020_Dec_03_1116,testDots,2020.2.5,None
65,0,65,0,256.7961436,257.8100457,257.7591501,258.0595239,258.0595239,259.0792481,259.0581094,260.066485,left,0.121911815,260.066485,None,0.2,180,1,110429.0796,256.7741512,angel5,1,2020_Dec_03_1116,testDots,2020.2.5,None
66,0,66,0,260.2255581,261.2282706,261.2093764,261.5085097,261.5085097,262.5087916,262.5087916,263.5101895,left,0.302177499,263.5101895,None,0.05,0,0,110432.5146,260.2128055,angel5,1,2020_Dec_03_1116,testDots,2020.2.5,None
67,0,67,0,263.8598559,264.8611248,264.8449602,265.1469786,265.1469786,266.1600589,266.1465507,267.1452479,right,0.243180734,267.1452479,None,0.1,180,0,110436.1465,263.84277,angel5,1,2020_Dec_03_1116,testDots,2020.2.5,None
68,0,68,0,267.4282938,268.4429716,268.4102493,268.7098332,268.7098332,269.7099225,269.7099225,270.7125284,left,0.235866643,270.7125284,None,0.15,0,0,110439.7123,267.4113333,angel5,1,2020_Dec_03_1116,testDots,2020.2.5,None
69,0,69,0,270.9958511,271.9953398,271.9814076,272.2943529,272.2816847,273.2967487,273.2791532,274.2774457,left,0.279014451,274.2774457,None,0.5,180,1,110443.2811,270.9775786,angel5,1,2020_Dec_03_1116,testDots,2020.2.5,None
70,0,70,0,274.5946119,275.5965188,275.5781287,275.8809473,275.8809473,276.8950049,276.8782352,277.8784787,right,0.30995911,277.8784787,None,0.2,180,0,110446.8794,274.5786141,angel5,1,2020_Dec_03_1116,testDots,2020.2.5,None
71,0,71,0,278.2283575,279.2311576,279.2112489,279.5114627,279.5114627,280.5116727,280.5116727,281.5118587,left,0.356541752,281.5118587,None,0.05,180,1,110450.5134,278.2116749,angel5,1,2020_Dec_03_1116,testDots,2020.2.5,None
72,0,72,0,281.914688,282.9352779,282.8952281,283.2003967,283.2003967,284.1991307,284.1991307,285.1970716,left,0.407338547,285.1970716,None,0.1,0,0,110454.1982,281.8960294,angel5,1,2020_Dec_03_1116,testDots,2020.2.5,None
73,0,73,0,285.6527526,286.6641368,286.6341755,286.946877,286.9313772,287.9507472,287.9247436,288.9362749,left,0.324190384,288.9362749,None,0.15,180,1,110457.9386,285.6294987,angel5,1,2020_Dec_03_1116,testDots,2020.2.5,None
74,0,74,0,289.3003027,290.3003918,290.2844168,290.6016948,290.5651991,291.5804391,291.5804391,292.5661834,left,0.158215952,292.5661834,None,0.5,180,1,110461.5878,289.281766,angel5,1,2020_Dec_03_1116,testDots,2020.2.5,None
75,0,75,0,292.7835349,293.7819199,293.747876,294.0475066,294.0475066,295.0651649,295.0651649,296.0533201,right,0.247120384,296.0533201,None,0.5,0,1,110465.0603,292.7685601,angel5,1,2020_Dec_03_1116,testDots,2020.2.5,None
76,0,76,0,296.3478266,297.3504802,297.331011,297.6313578,297.6313578,298.6321096,298.6321096,299.6320039,left,0.140405182,299.6320039,None,0.15,0,0,110468.6342,296.3327436,angel5,1,2020_Dec_03_1116,testDots,2020.2.5,None
77,0,77,0,299.8158262,300.8150822,300.801973,301.116405,301.104561,302.119322,302.1060668,303.1007667,left,0.287679672,303.1007667,None,0.1,180,1,110472.1013,299.7991221,angel5,1,2020_Dec_03_1116,testDots,2020.2.5,None
78,0,78,0,303.43226,304.4328453,304.417471,304.7180149,304.7180149,305.7245945,305.7245945,306.7160758,left,0.272362975,306.7160758,None,0.2,180,1,110475.7169,303.4158425,angel5,1,2020_Dec_03_1116,testDots,2020.2.5,None
79,0,79,0,307.0368475,308.0407799,308.0207252,308.3162947,308.3162947,309.3183192,309.3183192,310.3168263,left,0.463674012,310.3168263,None,0.05,0,0,110479.3248,307.0220113,angel5,1,2020_Dec_03_1116,testDots,2020.2.5,None
80,0,80,0,310.8347684,311.8349868,311.8028851,312.1184938,312.1045742,313.1189671,313.1037952,314.1036476,right,0.252749439,314.1036476,None,0.05,0,1,110483.1098,310.8036349,angel5,1,2020_Dec_03_1116,testDots,2020.2.5,None
81,0,81,0,314.4015671,315.4043683,315.3854734,315.7026894,315.6870802,316.6870443,316.6870443,317.6854974,left,0.38294607,317.6854974,None,0.2,180,1,110486.6893,314.3883832,angel5,1,2020_Dec_03_1116,testDots,2020.2.5,None
82,0,82,0,318.1034038,319.1212334,319.0846524,319.3845691,319.3845691,320.3849877,320.3849877,321.3851145,left,0.28337625,321.3851145,None,0.1,180,1,110490.3947,318.0917974,angel5,1,2020_Dec_03_1116,testDots,2020.2.5,None
83,0,83,0,321.7063827,322.7215449,322.6862342,322.9894265,322.9894265,323.9896226,323.9896226,324.9916874,left,1.060706332,324.9916874,None,0.5,180,1,110493.9904,321.689665,angel5,1,2020_Dec_03_1116,testDots,2020.2.5,None
84,0,84,0,326.086951,327.0859756,327.0711437,327.3860359,327.3721306,328.3742545,328.3742545,329.3700317,right,0.178417358,329.3700317,None,0.15,0,1,110498.3729,326.0692915,angel5,1,2020_Dec_03_1116,testDots,2020.2.5,None
